Timestamp,Gyroscope X (deg/s),Gyroscope Y (deg/s),Gyroscope Z (deg/s),Accelerometer X (g),Accelerometer Y (g),Accelerometer Z (g),Magnetometer X (G),Magnetometer Y (G),Magnetometer Z (G)
30265,-0.79,2.01,-0.43,-0.39,0.16,-0.92,27.91,44.26,-60.47
30295,-0.79,2.01,-0.37,-0.39,0.15,-0.94,27.91,42.16,-59.71
30324,-0.79,1.95,-0.43,-0.39,0.14,-0.95,28.06,42.61,-58.96
30354,-0.79,2.01,-0.43,-0.39,0.14,-0.94,28.06,43.36,-60.02
30384,-0.79,2.01,-0.37,-0.39,0.15,-0.94,29.11,43.06,-59.56
30413,-0.73,2.01,-0.37,-0.38,0.15,-0.94,29.86,44.11,-60.02
30443,-0.79,2.01,-0.43,-0.39,0.14,-0.94,27.61,42.91,-58.66
30473,-0.79,1.95,-0.43,-0.39,0.14,-0.94,30.31,43.06,-61.07
30507,-0.79,2.01,-0.43,-0.38,0.15,-0.96,29.41,44.26,-60.47
30537,-0.79,1.89,-0.43,-0.39,0.15,-0.94,28.06,43.81,-60.02
30585,-0.79,2.01,-0.43,-0.39,0.15,-0.95,27.91,43.51,-59.71
30615,-0.79,1.95,-0.43,-0.39,0.14,-0.94,29.56,43.81,-59.56
30644,-0.73,1.95,-0.49,-0.4,0.15,-0.95,28.66,43.21,-57.76
30675,-0.79,1.95,-0.37,-0.4,0.15,-0.95,29.41,42.46,-59.41
30703,-0.79,1.95,-0.37,-0.39,0.15,-0.93,27.76,42.01,-58.51
30735,-0.79,1.95,-0.43,-0.38,0.15,-0.93,27.91,42.46,-60.17
30764,-0.79,1.95,-0.37,-0.39,0.15,-0.95,28.96,44.26,-58.36
30792,-0.73,1.95,-0.43,-0.39,0.14,-0.93,28.81,43.36,-61.67
30821,-0.73,2.01,-0.37,-0.39,0.15,-0.93,28.51,44.41,-60.32
30849,-0.73,2.01,-0.37,-0.4,0.15,-0.94,28.21,43.21,-59.11
30878,-0.73,1.95,-0.49,-0.39,0.15,-0.93,28.51,44.11,-60.02
30906,-0.79,1.95,-0.43,-0.39,0.15,-0.94,28.81,44.86,-59.26
30935,-0.79,2.01,-0.37,-0.4,0.14,-0.94,27.31,43.81,-59.56
30967,-0.79,1.95,-0.37,-0.39,0.15,-0.93,28.66,42.91,-59.11
30995,-0.79,1.95,-0.37,-0.39,0.14,-0.94,28.06,43.81,-59.56
31024,-0.73,1.95,-0.43,-0.39,0.15,-0.93,28.21,43.96,-59.71
31052,-0.79,2.01,-0.43,-0.38,0.15,-0.93,27.91,41.71,-60.47
31081,-0.79,1.95,-0.43,-0.39,0.15,-0.94,27.76,42.61,-59.56
31109,-0.79,1.95,-0.37,-0.39,0.15,-0.95,27.91,44.26,-60.47
31138,-0.85,1.95,-0.43,-0.39,0.15,-0.94,27.61,43.51,-60.17
31169,-0.79,1.95,-0.37,-0.39,0.15,-0.94,28.96,43.51,-58.36
31198,-0.79,2.01,-0.37,-0.38,0.16,-0.94,28.81,43.81,-60.02
31226,-0.79,1.95,-0.37,-0.39,0.15,-0.95,27.31,43.06,-60.32
31255,-0.79,1.95,-0.43,-0.38,0.15,-0.95,28.06,43.36,-59.26
31283,-0.73,2.01,-0.43,-0.39,0.14,-0.95,30.31,42.61,-58.51
31312,-0.79,1.95,-0.43,-0.38,0.14,-0.94,28.66,43.21,-59.11
31340,-0.79,1.95,-0.43,-0.39,0.15,-0.94,29.11,43.36,-61.07
31369,-0.73,2.01,-0.37,-0.39,0.14,-0.95,27.31,44.11,-59.26
31401,-0.79,1.95,-0.43,-0.4,0.14,-0.94,29.71,42.91,-59.41
31429,-0.79,1.95,-0.37,-0.4,0.15,-0.94,27.91,45.31,-59.11
31458,-0.79,1.95,-0.43,-0.39,0.15,-0.93,29.71,43.51,-58.66
31486,-0.79,1.95,-0.43,-0.39,0.15,-0.94,27.01,44.11,-58.96
31515,-0.79,2.01,-0.43,-0.39,0.15,-0.94,28.21,44.26,-59.41
31544,-0.73,2.01,-0.43,-0.38,0.15,-0.96,27.61,44.26,-60.47
31572,-0.79,2.01,-0.43,-0.39,0.15,-0.93,28.51,42.01,-59.26
31601,-0.73,1.95,-0.43,-0.38,0.15,-0.94,28.96,42.46,-58.36
31627,-0.79,1.95,-0.43,-0.39,0.15,-0.94,28.51,43.81,-60.62
31655,-0.79,1.95,-0.37,-0.38,0.16,-0.94,27.91,42.91,-58.36
31684,-0.79,1.95,-0.37,-0.39,0.14,-0.95,28.66,43.51,-59.41
31712,-0.79,1.95,-0.37,-0.39,0.14,-0.95,29.11,43.06,-58.96
31741,-0.79,1.95,-0.49,-0.39,0.14,-0.94,27.76,44.11,-59.26
31770,-0.79,1.95,-0.43,-0.39,0.14,-0.93,28.21,42.46,-61.22
31798,-0.79,1.95,-0.43,-0.39,0.14,-0.94,28.21,43.96,-60.17
31830,-0.79,1.95,-0.43,-0.39,0.14,-0.94,29.41,45.01,-58.66
31858,-0.79,1.95,-0.43,-0.39,0.15,-0.95,28.66,42.91,-59.41
31887,-0.85,1.95,-0.43,-0.39,0.15,-0.93,28.06,44.41,-60.02
31915,-0.73,1.95,-0.37,-0.39,0.14,-0.93,28.96,42.46,-58.36
31944,-0.79,1.95,-0.37,-0.39,0.15,-0.94,28.21,43.51,-58.66
31972,-0.79,1.95,-0.37,-0.39,0.16,-0.93,28.81,43.81,-58.96
32014,-0.73,2.01,-0.43,-0.39,0.15,-0.95,28.66,42.91,-61.22
32042,-0.79,1.95,-0.43,-0.39,0.15,-0.94,29.41,42.16,-61.22
32074,-0.79,1.95,-0.43,-0.4,0.16,-0.95,28.81,42.61,-59.56
32102,-0.79,1.95,-0.37,-0.39,0.15,-0.95,27.76,43.36,-59.56
32131,-0.73,1.95,-0.37,-0.38,0.16,-0.94,27.76,43.81,-58.96
32159,-0.79,1.95,-0.37,-0.39,0.15,-0.94,28.21,42.46,-59.71
32188,-0.79,1.95,-0.43,-0.38,0.15,-0.94,28.21,42.91,-59.11
32216,-0.79,1.95,-0.49,-0.4,0.14,-0.93,28.21,43.96,-60.47
32245,-0.79,1.89,-0.43,-0.39,0.16,-0.93,27.61,42.46,-59.71
32277,-0.79,1.95,-0.43,-0.38,0.15,-0.94,29.71,43.51,-60.77
32305,-0.79,2.01,-0.43,-0.39,0.15,-0.94,28.96,43.21,-60.47
32334,-0.85,2.01,-0.37,-0.4,0.15,-0.93,27.91,43.96,-59.41
32362,-0.79,1.95,-0.37,-0.38,0.14,-0.94,27.76,42.61,-59.56
32391,-0.79,2.01,-0.37,-0.39,0.14,-0.95,28.96,42.16,-59.41
32419,-0.79,1.95,-0.37,-0.39,0.15,-0.93,28.51,43.81,-59.26
32448,-0.79,1.95,-0.37,-0.39,0.15,-0.94,27.61,43.96,-60.17
32476,-0.73,2.07,-0.37,-0.39,0.15,-0.94,29.56,44.11,-59.11
32508,-0.79,1.95,-0.43,-0.38,0.15,-0.94,28.21,43.51,-60.17
32537,-0.73,1.95,-0.49,-0.38,0.15,-0.95,29.56,44.11,-60.02
32565,-0.79,2.01,-0.3,-0.39,0.15,-0.93,28.96,43.96,-59.71
32594,-0.79,1.95,-0.37,-0.38,0.16,-0.94,27.91,43.96,-59.41
32622,-0.73,1.95,-0.43,-0.4,0.14,-0.94,28.51,44.11,-60.62
32651,-0.79,1.95,-0.37,-0.38,0.14,-0.94,27.76,42.61,-60.32
32679,-0.79,1.95,-0.49,-0.39,0.15,-0.94,29.56,43.36,-58.96
32711,-0.79,2.01,-0.43,-0.39,0.15,-0.94,27.76,43.36,-59.26
32740,-0.73,2.01,-0.43,-0.39,0.15,-0.94,28.66,42.91,-60.17
32768,-0.79,1.95,-0.43,-0.38,0.14,-0.95,27.01,44.41,-60.32
32797,-0.79,2.01,-0.43,-0.39,0.15,-0.94,28.21,42.91,-59.11
32825,-0.73,1.95,-0.43,-0.39,0.15,-0.94,28.81,44.11,-60.32
32854,-0.79,2.01,-0.43,-0.39,0.15,-0.95,27.76,43.06,-60.32
32882,-0.85,1.95,-0.43,-0.39,0.15,-0.94,28.81,41.56,-60.02
32911,-0.73,1.89,-0.43,-0.39,0.14,-0.94,28.21,43.51,-58.36
32942,-0.79,2.01,-0.37,-0.39,0.15,-0.95,28.51,43.36,-61.37
32971,-0.79,2.01,-0.37,-0.39,0.15,-0.95,29.11,43.06,-61.07
32999,-0.79,2.01,-0.49,-0.39,0.15,-0.94,28.21,43.21,-59.71
33028,-0.79,2.01,-0.43,-0.39,0.15,-0.94,28.21,45.31,-60.17
33057,-0.79,2.01,-0.43,-0.4,0.16,-0.94,29.11,44.86,-60.02
33085,-0.79,2.01,-0.37,-0.39,0.14,-0.95,29.41,43.51,-60.47
33114,-0.79,1.95,-0.43,-0.38,0.15,-0.95,28.51,43.36,-59.56
33145,-0.73,1.95,-0.37,-0.4,0.15,-0.94,28.66,44.71,-59.71
33174,-0.79,1.95,-0.37,-0.38,0.15,-0.94,29.11,44.11,-60.62
33202,-0.73,2.01,-0.43,-0.38,0.14,-0.93,28.06,43.81,-58.51
33231,-0.73,2.01,-0.43,-0.39,0.15,-0.95,26.71,43.36,-60.02
33259,-0.73,2.07,-0.37,-0.39,0.15,-0.94,28.96,45.01,-60.47
33288,-0.79,2.07,-0.43,-0.39,0.15,-0.93,28.66,43.51,-60.47
33316,-0.73,2.07,-0.49,-0.38,0.15,-0.94,28.66,44.26,-59.71
33345,-0.67,2.07,-0.43,-0.39,0.15,-0.93,28.96,42.16,-61.22
33377,-0.73,2.01,-0.37,-0.38,0.15,-0.93,26.26,43.36,-60.02
33405,-0.73,1.95,-0.37,-0.39,0.13,-0.93,28.21,43.51,-59.11
33434,-0.79,2.07,-0.37,-0.38,0.15,-0.95,28.51,43.36,-59.56
33462,-0.79,2.01,-0.43,-0.39,0.14,-0.94,28.06,43.06,-60.02
33491,-0.73,1.71,-0.43,-0.39,0.15,-0.93,27.01,43.36,-60.62
33519,-0.85,1.65,-0.43,-0.4,0.14,-0.96,28.81,42.01,-60.32
33548,-0.79,1.52,-0.49,-0.39,0.15,-0.94,28.66,43.96,-60.17
33580,-0.79,1.59,-0.43,-0.39,0.15,-0.95,29.11,44.11,-61.07
33608,-0.79,1.65,-0.49,-0.39,0.15,-0.95,28.66,43.21,-59.41
33637,-0.79,1.95,-0.37,-0.4,0.15,-0.94,28.51,42.61,-60.02
33665,-0.73,2.01,-0.37,-0.39,0.15,-0.95,28.51,43.81,-59.26
33694,-0.79,2.62,-0.37,-0.39,0.15,-0.94,28.51,43.81,-58.96
33722,-0.79,2.5,-0.3,-0.39,0.15,-0.94,29.11,43.36,-60.32
33757,-0.73,1.22,-0.55,-0.39,0.14,-0.93,27.76,43.36,-59.56
33831,-0.79,2.26,-0.3,-0.4,0.15,-0.95,28.06,42.31,-59.56
33863,-0.79,2.07,-0.37,-0.39,0.14,-0.94,27.61,42.46,-60.17
33891,-0.79,1.77,-0.43,-0.39,0.15,-0.94,26.71,43.36,-58.51
33920,-0.79,2.01,-0.3,-0.38,0.15,-0.95,28.81,42.61,-60.02
33948,-0.79,2.38,-0.37,-0.39,0.15,-0.94,28.81,43.06,-59.26
33977,-0.79,2.32,-0.37,-0.38,0.15,-0.94,29.56,41.56,-58.51
34005,-0.79,1.95,-0.43,-0.39,0.15,-0.94,28.06,42.31,-61.07
34034,-0.85,2.01,-0.37,-0.39,0.14,-0.94,28.51,43.36,-58.96
34065,-0.79,2.32,-0.3,-0.39,0.15,-0.94,29.11,43.06,-61.07
34100,-0.73,2.01,-0.37,-0.38,0.15,-0.94,28.21,43.51,-59.41
34129,-0.79,2.13,-0.37,-0.39,0.14,-0.94,29.11,43.06,-59.26
34158,-0.73,1.83,-0.43,-0.39,0.14,-0.95,27.76,43.06,-59.26
34186,-0.79,1.95,-0.43,-0.39,0.15,-0.94,29.71,42.91,-60.17
34214,-0.73,1.89,-0.37,-0.39,0.16,-0.95,27.91,43.96,-61.52
34243,-0.85,1.89,-0.43,-0.39,0.16,-0.94,28.66,42.91,-60.17
34271,-0.73,2.2,-0.37,-0.38,0.15,-0.94,29.11,43.81,-59.26
34303,-0.73,2.01,-0.37,-0.39,0.15,-0.93,28.96,43.21,-61.52
34332,-0.73,2.07,-0.37,-0.39,0.15,-0.93,29.56,43.81,-60.02
34360,-0.85,2.07,-0.37,-0.39,0.16,-0.94,27.61,44.71,-60.47
34389,-0.79,2.01,-0.37,-0.38,0.15,-0.94,27.16,43.96,-60.77
34417,-0.79,1.95,-0.43,-0.39,0.14,-0.93,27.91,44.26,-60.47
34446,-0.79,2.01,-0.43,-0.39,0.14,-0.93,30.01,43.21,-58.66
34474,-0.85,1.95,-0.43,-0.39,0.14,-0.94,28.06,43.36,-59.26
34506,-0.79,1.95,-0.43,-0.38,0.14,-0.93,29.11,43.81,-60.02
34535,-0.79,1.89,-0.43,-0.39,0.14,-0.94,28.51,42.61,-61.07
34563,-0.79,1.95,-0.43,-0.39,0.15,-0.94,28.51,44.41,-60.32
34592,-0.79,2.01,-0.43,-0.39,0.14,-0.93,28.06,44.41,-59.26
34620,-0.79,1.95,-0.37,-0.39,0.15,-0.95,29.56,42.31,-60.02
34649,-0.79,2.01,-0.43,-0.39,0.15,-0.93,29.86,44.11,-59.26
34677,-0.79,1.95,-0.37,-0.38,0.16,-0.95,28.66,42.16,-60.77
34706,-0.79,2.01,-0.37,-0.39,0.15,-0.93,28.21,43.21,-60.17
34738,-0.79,1.89,-0.43,-0.39,0.15,-0.94,27.31,44.11,-59.56
34766,-0.79,1.95,-0.37,-0.4,0.15,-0.95,27.76,43.81,-59.56
34795,-0.79,1.89,-0.37,-0.39,0.15,-0.93,27.31,43.81,-59.56
34823,-0.73,1.95,-0.43,-0.39,0.15,-0.94,28.06,43.81,-60.02
34852,-0.73,2.01,-0.43,-0.39,0.15,-0.94,28.66,44.26,-59.41
34880,-0.73,2.01,-0.43,-0.39,0.14,-0.93,28.51,43.06,-60.62
34909,-0.79,2.01,-0.43,-0.39,0.14,-0.96,27.91,43.51,-60.17
34940,-0.79,1.95,-0.43,-0.39,0.15,-0.95,28.66,42.91,-60.17
34969,-0.85,1.95,-0.43,-0.38,0.14,-0.94,28.06,43.06,-60.02
34997,-0.79,1.95,-0.43,-0.37,0.14,-0.95,28.51,41.56,-61.07
35026,-0.79,1.95,-0.43,-0.39,0.15,-0.94,28.06,44.86,-59.56
35054,-0.73,2.01,-0.37,-0.39,0.14,-0.93,26.86,43.21,-60.77
35083,-0.79,1.95,-0.37,-0.39,0.16,-0.94,26.71,44.41,-61.07
35111,-0.79,1.89,-0.37,-0.39,0.14,-0.94,28.06,43.81,-59.56
35140,-0.79,1.95,-0.43,-0.4,0.15,-0.94,30.31,42.61,-60.02
35172,-0.85,2.01,-0.43,-0.39,0.15,-0.94,28.81,43.81,-60.62
35200,-0.85,1.95,-0.37,-0.38,0.15,-0.95,28.66,43.51,-59.41
35229,-0.79,1.95,-0.37,-0.39,0.14,-0.94,29.71,43.21,-60.47
35257,-0.73,1.95,-0.37,-0.39,0.15,-0.95,27.91,42.91,-61.52
35286,-0.85,1.89,-0.43,-0.39,0.14,-0.94,28.51,42.31,-60.32
35314,-0.79,1.89,-0.37,-0.39,0.16,-0.93,27.76,44.86,-60.02
35343,-0.79,2.01,-0.43,-0.39,0.15,-0.95,28.81,43.06,-60.62
35371,-0.79,2.01,-0.37,-0.38,0.14,-0.95,27.61,45.01,-61.22
35397,-0.79,1.95,-0.37,-0.39,0.15,-0.94,28.06,44.11,-59.56
35426,-0.79,2.01,-0.43,-0.38,0.15,-0.94,27.61,42.91,-60.77
35454,-0.73,2.01,-0.43,-0.38,0.14,-0.94,28.51,43.36,-59.26
35483,-0.79,1.95,-0.37,-0.39,0.15,-0.95,29.41,44.26,-59.71
35526,-0.79,1.95,-0.43,-0.39,0.15,-0.94,28.21,43.21,-61.22
35554,-0.79,1.95,-0.43,-0.39,0.15,-0.94,27.76,44.41,-59.26
35583,-0.73,1.95,-0.49,-0.39,0.15,-0.93,29.41,42.46,-59.71
35615,-0.73,1.95,-0.37,-0.39,0.14,-0.94,29.11,43.06,-60.02
35643,-0.79,1.95,-0.37,-0.39,0.14,-0.94,28.81,43.81,-61.07
35672,-0.73,1.95,-0.37,-0.39,0.15,-0.96,28.21,43.96,-60.17
35700,-0.79,1.95,-0.37,-0.38,0.15,-0.95,27.01,44.11,-60.62
35729,-0.73,1.95,-0.43,-0.4,0.15,-0.94,28.51,43.81,-60.32
35757,-0.79,2.01,-0.49,-0.39,0.14,-0.94,28.81,42.31,-59.56
35786,-0.79,1.95,-0.37,-0.39,0.14,-0.94,27.31,44.11,-60.32
35814,-0.79,1.95,-0.37,-0.39,0.16,-0.93,28.96,44.26,-60.77
35846,-0.79,1.95,-0.37,-0.38,0.14,-0.95,28.81,43.36,-59.56
35874,-0.79,2.01,-0.43,-0.39,0.15,-0.96,28.06,43.81,-59.56
35903,-0.79,2.07,-0.43,-0.4,0.15,-0.96,28.51,44.41,-59.26
35931,-0.79,1.89,-0.49,-0.39,0.15,-0.94,28.66,43.96,-59.71
35960,-0.79,2.01,-0.43,-0.39,0.14,-0.94,28.66,43.51,-60.17
35989,-0.79,1.95,-0.3,-0.39,0.15,-0.93,27.91,43.51,-59.41
36017,-0.73,1.95,-0.37,-0.38,0.15,-0.94,28.06,42.31,-60.62
36049,-0.73,1.77,-0.43,-0.39,0.15,-0.94,28.51,42.31,-60.02
36077,-0.79,2.01,-0.37,-0.4,0.15,-0.95,26.11,42.91,-60.17
36106,-0.79,1.95,-0.37,-0.39,0.15,-0.95,28.21,43.21,-59.71
36134,-0.79,2.07,-0.37,-0.39,0.16,-0.94,28.66,44.26,-60.17
36163,-0.79,2.01,-0.37,-0.39,0.14,-0.94,28.66,43.51,-60.47
36191,-0.79,2.01,-0.43,-0.39,0.14,-0.94,29.11,43.36,-60.02
36220,-0.85,2.01,-0.43,-0.39,0.15,-0.93,28.21,44.26,-61.22
36248,-0.73,1.95,-0.37,-0.39,0.15,-0.94,30.01,42.91,-59.71
36280,-0.73,1.89,-0.43,-0.4,0.15,-0.94,28.21,43.96,-60.47
36309,-0.85,2.01,-0.37,-0.39,0.15,-0.96,28.96,43.21,-58.66
36337,-0.73,2.07,-0.43,-0.39,0.14,-0.95,27.61,42.91,-60.17
36366,-0.79,1.95,-0.43,-0.4,0.15,-0.94,29.11,43.06,-61.67
36394,-0.79,2.01,-0.43,-0.39,0.15,-0.95,28.51,42.31,-60.32
36423,-0.79,2.01,-0.37,-0.39,0.16,-0.95,27.31,43.81,-60.02
36451,-0.79,1.95,-0.43,-0.39,0.15,-0.95,30.01,43.21,-60.47
36483,-0.73,2.01,-0.37,-0.39,0.15,-0.94,26.71,43.06,-60.32
36511,-0.79,1.89,-0.37,-0.38,0.14,-0.93,27.91,42.16,-60.17
36540,-0.79,2.07,-0.37,-0.39,0.15,-0.94,28.81,41.56,-59.56
36568,-0.79,1.83,-0.43,-0.39,0.15,-0.94,29.71,43.96,-61.22
36597,-0.85,2.07,-0.43,-0.4,0.16,-0.94,28.51,43.36,-61.37
36625,-0.79,1.95,-0.43,-0.4,0.15,-0.95,28.06,43.06,-59.56
36654,-0.73,1.89,-0.43,-0.38,0.15,-0.94,28.51,43.81,-60.62
36682,-0.79,1.95,-0.37,-0.38,0.15,-0.95,28.06,43.06,-61.07
36714,-0.73,1.89,-0.43,-0.39,0.15,-0.95,27.76,43.81,-59.26
36743,-0.79,2.01,-0.43,-0.39,0.15,-0.93,28.96,42.91,-60.77
36771,-0.79,1.95,-0.43,-0.39,0.14,-0.93,28.21,43.21,-59.71
36800,-0.79,2.01,-0.37,-0.39,0.15,-0.94,29.71,43.21,-60.17
36828,-0.79,1.89,-0.43,-0.4,0.15,-0.94,28.21,42.91,-59.71
36857,-0.79,2.13,-0.37,-0.39,0.15,-0.94,27.91,43.21,-59.41
36885,-0.79,2.01,-0.37,-0.4,0.15,-0.94,28.21,45.01,-60.47
36917,-0.79,2.07,-0.3,-0.39,0.14,-0.94,27.31,43.36,-60.32
36946,-0.79,2.01,-0.43,-0.39,0.16,-0.93,28.51,43.81,-59.56
36974,-0.79,1.89,-0.43,-0.39,0.15,-0.94,27.91,43.21,-59.71
37003,-0.79,2.01,-0.37,-0.39,0.15,-0.94,28.81,42.61,-60.02
37031,-0.85,2.01,-0.37,-0.39,0.15,-0.93,28.21,45.01,-59.41
37059,-0.73,1.95,-0.43,-0.39,0.16,-0.95,28.21,43.51,-60.17
37088,-0.79,2.01,-0.3,-0.39,0.15,-0.94,27.76,42.31,-60.62
37116,-0.79,1.95,-0.3,-0.38,0.15,-0.92,28.51,43.36,-59.56
37148,-0.73,1.95,-0.37,-0.39,0.15,-0.93,29.41,42.46,-60.47
37177,-0.73,1.95,-0.43,-0.39,0.15,-0.95,29.86,43.81,-60.62
37205,-0.85,1.95,-0.43,-0.39,0.15,-0.94,28.81,43.36,-61.07
37234,-0.79,1.95,-0.43,-0.39,0.15,-0.95,28.06,43.36,-60.32
37268,-0.85,1.95,-0.43,-0.38,0.15,-0.94,29.11,43.06,-60.32
37297,-0.79,1.95,-0.43,-0.39,0.15,-0.95,27.91,44.26,-59.11
37325,-0.79,2.01,-0.37,-0.4,0.15,-0.94,28.51,44.11,-59.26
37357,-0.79,2.01,-0.43,-0.39,0.16,-0.94,27.76,42.61,-59.56
37386,-0.79,1.89,-0.43,-0.39,0.15,-0.95,27.76,44.11,-59.56
37414,-0.73,2.01,-0.43,-0.38,0.15,-0.94,28.51,43.06,-59.56
37443,-0.79,1.95,-0.43,-0.39,0.14,-0.95,28.66,43.21,-59.71
37471,-0.79,2.01,-0.43,-0.39,0.14,-0.94,26.26,44.41,-60.32
37500,-0.73,1.95,-0.49,-0.39,0.16,-0.93,29.11,43.36,-62.42
37528,-0.73,2.07,-0.49,-0.38,0.15,-0.95,28.21,43.21,-59.71
37557,-0.79,1.89,-0.43,-0.39,0.16,-0.95,28.66,44.71,-60.47
37589,-0.73,1.95,-0.49,-0.38,0.15,-0.94,27.76,44.86,-60.02
37617,-0.79,2.01,-0.37,-0.39,0.15,-0.95,28.21,42.46,-59.41
37646,-0.79,1.95,-0.43,-0.39,0.14,-0.95,27.31,43.81,-58.51
37674,-0.79,2.01,-0.37,-0.39,0.15,-0.94,28.96,44.26,-58.66
37703,-0.79,1.95,-0.37,-0.39,0.15,-0.94,27.91,43.21,-59.41
37731,-0.79,2.13,-0.37,-0.39,0.15,-0.94,27.31,42.61,-59.26
37766,-0.79,1.95,-0.37,-0.4,0.15,-0.94,28.81,43.81,-61.07
37798,-0.79,2.01,-0.37,-0.4,0.15,-0.93,27.91,43.96,-60.47
37827,-0.79,1.95,-0.37,-0.38,0.15,-0.94,28.06,43.06,-60.62
37855,-0.79,1.95,-0.43,-0.39,0.14,-0.93,29.41,43.21,-62.27
37884,-0.73,1.95,-0.37,-0.4,0.15,-0.94,28.96,43.51,-60.17
37912,-0.79,1.89,-0.43,-0.39,0.15,-0.94,27.91,43.96,-60.17
37941,-0.79,2.01,-0.37,-0.38,0.15,-0.93,29.11,42.31,-60.32
37969,-0.79,1.83,-0.43,-0.39,0.15,-0.94,26.86,43.21,-58.66
37998,-0.73,2.07,-0.37,-0.39,0.15,-0.95,27.31,44.11,-60.32
38030,-0.73,1.95,-0.37,-0.39,0.14,-0.94,28.51,43.81,-60.02
38058,-0.79,2.07,-0.43,-0.38,0.14,-0.93,29.11,44.86,-59.26
38087,-0.79,1.95,-0.43,-0.39,0.15,-0.95,27.76,42.61,-59.56
38115,-0.79,1.95,-0.43,-0.39,0.15,-0.94,28.96,43.51,-60.17
38144,-0.73,1.95,-0.43,-0.4,0.14,-0.94,28.51,44.11,-60.62
38172,-0.79,2.07,-0.37,-0.39,0.15,-0.93,27.16,44.26,-59.71
38201,-0.79,1.95,-0.43,-0.38,0.15,-0.94,29.11,42.61,-61.07
38233,-0.79,1.95,-0.37,-0.39,0.15,-0.94,27.01,43.06,-59.56
38261,-0.79,1.95,-0.43,-0.4,0.15,-0.94,28.66,42.91,-61.22
38290,-0.73,1.95,-0.49,-0.4,0.15,-0.94,27.01,44.86,-60.32
38318,-0.79,1.95,-0.49,-0.39,0.15,-0.95,30.61,43.36,-59.26
38347,-0.79,1.95,-0.37,-0.39,0.15,-0.94,28.21,43.96,-61.22
38375,-0.79,1.95,-0.43,-0.38,0.15,-0.93,27.91,43.51,-59.41
38404,-0.79,1.89,-0.37,-0.39,0.16,-0.94,28.66,43.96,-60.47
38432,-0.79,1.95,-0.37,-0.38,0.15,-0.95,28.51,43.36,-59.56
38464,-0.79,1.95,-0.37,-0.39,0.15,-0.94,26.71,43.81,-59.56
38492,-0.79,1.95,-0.37,-0.39,0.15,-0.94,28.66,43.21,-59.71
38521,-0.73,1.95,-0.37,-0.39,0.16,-0.96,28.51,44.11,-59.56
38549,-0.73,1.95,-0.49,-0.39,0.15,-0.93,27.91,43.96,-59.71
38578,-0.73,2.01,-0.43,-0.4,0.14,-0.93,27.76,43.81,-59.56
38607,-0.79,2.07,-0.43,-0.39,0.15,-0.95,27.91,43.21,-60.17
38635,-0.73,1.95,-0.49,-0.39,0.16,-0.95,28.66,44.71,-59.41
38667,-0.73,1.89,-0.49,-0.39,0.14,-0.94,29.41,43.21,-60.47
38696,-0.79,2.07,-0.49,-0.39,0.15,-0.94,27.16,43.21,-58.66
38724,-0.73,1.83,-0.43,-0.39,0.15,-0.93,28.66,42.46,-59.11
38753,-0.85,2.01,-0.37,-0.39,0.16,-0.95,28.66,42.46,-60.47
38781,-0.79,1.89,-0.37,-0.38,0.16,-0.94,27.61,43.21,-59.71
38810,-0.73,1.95,-0.37,-0.39,0.15,-0.94,27.91,42.16,-59.71
38838,-0.79,1.95,-0.43,-0.39,0.15,-0.93,26.71,43.36,-60.32
38867,-0.79,2.01,-0.43,-0.4,0.15,-0.93,29.11,43.36,-60.32
38899,-0.79,1.95,-0.43,-0.4,0.15,-0.94,27.91,42.91,-59.71
38927,-0.79,1.95,-0.43,-0.4,0.14,-0.93,28.21,43.21,-61.22
38956,-0.79,1.95,-0.43,-0.39,0.16,-0.95,28.81,44.41,-60.32
38984,-0.79,1.95,-0.43,-0.38,0.15,-0.95,28.06,43.06,-60.32
39033,-0.73,1.95,-0.37,-0.39,0.15,-0.95,27.76,43.81,-60.02
39061,-0.79,1.89,-0.37,-0.38,0.15,-0.94,28.66,44.26,-59.41
39090,-0.73,1.95,-0.49,-0.38,0.14,-0.95,26.86,43.51,-60.77
39118,-0.79,1.95,-0.49,-0.39,0.15,-0.95,28.21,43.96,-59.71
39145,-0.73,1.95,-0.43,-0.38,0.16,-0.93,27.76,44.86,-60.32
39173,-0.79,1.89,-0.43,-0.39,0.15,-0.95,28.51,44.86,-61.07
39201,-0.73,1.95,-0.49,-0.39,0.14,-0.94,28.51,43.06,-59.26
39230,-0.73,1.95,-0.43,-0.38,0.15,-0.95,28.06,43.06,-60.62
39259,-0.79,1.95,-0.37,-0.39,0.15,-0.94,28.21,43.51,-58.66
39287,-0.79,2.01,-0.43,-0.39,0.15,-0.95,27.76,43.06,-58.96
39316,-0.79,2.01,-0.43,-0.39,0.15,-0.94,29.11,42.61,-59.26
39348,-0.79,1.95,-0.43,-0.39,0.15,-0.95,28.21,42.16,-60.17
39376,-0.73,1.95,-0.49,-0.39,0.16,-0.94,28.66,43.21,-59.41
39405,-0.79,2.01,-0.43,-0.39,0.15,-0.94,27.76,42.61,-60.32
39433,-0.73,1.95,-0.43,-0.39,0.15,-0.94,29.86,42.61,-61.67
39461,-0.73,1.95,-0.37,-0.39,0.15,-0.93,28.66,42.46,-60.77
39490,-0.73,2.01,-0.43,-0.39,0.14,-0.95,28.06,43.06,-60.62
39519,-0.79,1.95,-0.43,-0.39,0.14,-0.94,28.21,43.51,-59.41
39547,-0.73,2.01,-0.37,-0.39,0.15,-0.95,27.31,42.01,-60.32
39579,-0.73,1.95,-0.37,-0.38,0.15,-0.96,28.66,43.96,-59.11
39607,-0.79,1.95,-0.43,-0.39,0.15,-0.93,27.31,43.81,-60.02
39636,-0.67,2.01,-0.43,-0.39,0.15,-0.95,28.21,42.91,-59.71
39664,-0.79,1.95,-0.43,-0.39,0.15,-0.95,28.06,42.61,-59.26
39693,-0.79,1.95,-0.37,-0.39,0.15,-0.95,27.91,43.21,-59.71
39721,-0.79,1.89,-0.43,-0.4,0.14,-0.93,28.96,42.91,-60.77
39750,-0.79,1.95,-0.37,-0.39,0.14,-0.94,27.91,44.26,-59.41
39782,-0.79,1.95,-0.37,-0.39,0.15,-0.95,29.41,43.51,-59.71
39810,-0.73,2.01,-0.43,-0.39,0.14,-0.95,28.96,43.51,-58.06
39839,-0.73,1.95,-0.43,-0.39,0.16,-0.93,27.91,43.51,-59.41
39868,-0.73,1.95,-0.43,-0.38,0.14,-0.95,28.21,42.46,-60.47
39896,-0.79,1.95,-0.43,-0.4,0.14,-0.96,28.96,43.21,-60.77
39925,-0.79,1.89,-0.43,-0.39,0.15,-0.94,28.51,42.31,-61.07
39953,-0.79,1.95,-0.43,-0.39,0.14,-0.93,29.11,42.61,-60.62
39982,-0.73,1.95,-0.43,-0.39,0.15,-0.94,27.91,42.91,-59.71
40013,-0.79,1.95,-0.43,-0.39,0.15,-0.93,28.21,42.16,-59.11
40042,-0.79,1.95,-0.37,-0.39,0.15,-0.93,28.06,42.61,-60.02
40070,-0.79,1.95,-0.43,-0.39,0.15,-0.94,28.21,42.46,-60.77
40099,-0.73,1.95,-0.37,-0.39,0.15,-0.93,28.51,42.01,-60.32
40127,-0.79,1.89,-0.37,-0.39,0.15,-0.95,28.81,43.06,-60.62
40156,-0.73,1.95,-0.3,-0.39,0.16,-0.94,27.91,43.21,-59.41
40184,-0.73,1.95,-0.3,-0.37,0.15,-0.95,29.86,42.61,-59.56
40216,-0.73,2.01,-0.43,-0.39,0.15,-0.94,28.21,43.21,-59.71
40245,-0.85,2.01,-0.43,-0.39,0.15,-0.94,29.11,43.06,-60.62
40273,-0.73,2.01,-0.43,-0.39,0.15,-0.94,29.71,43.51,-60.17
40302,-0.73,1.89,-0.43,-0.39,0.15,-0.94,29.11,42.61,-60.32
40330,-0.79,2.01,-0.43,-0.39,0.14,-0.95,28.21,42.46,-59.41
40359,-0.73,2.01,-0.43,-0.39,0.15,-0.94,27.91,43.21,-59.71
40387,-0.79,1.95,-0.43,-0.38,0.15,-0.94,28.51,43.36,-60.32
40416,-0.79,1.89,-0.43,-0.39,0.15,-0.94,27.61,43.51,-60.47
40448,-0.79,1.89,-0.43,-0.39,0.15,-0.93,27.91,45.76,-59.11
40476,-0.79,1.95,-0.43,-0.39,0.15,-0.94,27.31,43.36,-59.26
40505,-0.79,1.95,-0.43,-0.39,0.15,-0.94,28.81,44.11,-60.32
40533,-0.73,2.01,-0.3,-0.38,0.15,-0.93,27.91,43.21,-62.57
40562,-0.73,1.95,-0.3,-0.39,0.15,-0.95,27.91,43.51,-59.41
40590,-0.73,2.01,-0.37,-0.39,0.15,-0.95,28.66,43.21,-59.41
40619,-0.73,1.95,-0.43,-0.38,0.15,-0.95,27.01,43.36,-60.02
40651,-0.79,1.95,-0.3,-0.39,0.15,-0.94,28.21,42.91,-60.17
40679,-0.79,2.01,-0.37,-0.38,0.15,-0.94,27.61,43.51,-60.47
40708,-0.73,1.95,-0.43,-0.39,0.15,-0.94,28.51,43.36,-61.07
40736,-0.73,1.95,-0.43,-0.39,0.16,-0.95,28.51,43.06,-59.26
40778,-0.73,1.95,-0.43,-0.39,0.15,-0.95,28.66,42.91,-59.11
40806,-0.79,1.89,-0.43,-0.39,0.15,-0.93,28.21,45.01,-61.22
40835,-0.79,1.95,-0.37,-0.39,0.14,-0.95,29.11,43.06,-60.02
40863,-0.79,2.01,-0.37,-0.4,0.15,-0.94,26.71,42.61,-60.32
40895,-0.79,1.95,-0.43,-0.39,0.15,-0.94,28.66,43.51,-59.71
40923,-0.79,1.95,-0.43,-0.39,0.15,-0.95,27.91,43.96,-59.41
40952,-0.79,2.01,-0.43,-0.39,0.14,-0.94,28.66,44.71,-58.66
40980,-0.79,2.01,-0.43,-0.39,0.15,-0.95,30.01,43.51,-60.17
41009,-0.79,1.95,-0.37,-0.39,0.15,-0.95,29.56,43.81,-59.56
41037,-0.79,1.95,-0.43,-0.39,0.15,-0.95,26.86,43.21,-60.17
41066,-0.79,1.95,-0.43,-0.4,0.15,-0.94,30.31,44.86,-60.62
41098,-0.85,1.95,-0.43,-0.39,0.16,-0.97,28.06,42.01,-60.02
41126,-0.79,1.95,-0.43,-0.39,0.15,-0.93,29.86,44.11,-60.62
41155,-0.73,2.01,-0.43,-0.39,0.15,-0.95,29.56,43.36,-61.37
41183,-0.79,2.01,-0.43,-0.39,0.15,-0.94,28.66,42.91,-60.17
41212,-0.79,1.89,-0.43,-0.39,0.16,-0.94,26.41,43.51,-59.11
41240,-0.73,1.95,-0.3,-0.39,0.15,-0.94,28.66,43.21,-58.66
41269,-0.79,1.95,-0.43,-0.39,0.15,-0.93,27.16,42.91,-61.52
41297,-0.73,2.01,-0.37,-0.39,0.15,-0.94,28.96,43.96,-60.47
41329,-0.79,1.95,-0.37,-0.39,0.15,-0.95,29.56,44.11,-61.07
41358,-0.67,1.95,-0.37,-0.38,0.16,-0.94,28.21,44.71,-59.41
41386,-0.73,1.89,-0.43,-0.4,0.16,-0.94,29.41,43.21,-59.71
41421,-0.79,1.95,-0.43,-0.39,0.15,-0.94,30.46,42.91,-61.52
41450,-0.73,1.95,-0.43,-0.39,0.14,-0.94,27.61,43.96,-58.66
41478,-0.73,2.01,-0.43,-0.39,0.14,-0.94,28.51,44.11,-59.56
41507,-0.73,1.89,-0.43,-0.39,0.15,-0.93,29.11,42.61,-60.02
41539,-0.79,1.83,-0.49,-0.38,0.14,-0.94,28.21,43.21,-61.52
41567,-0.79,2.01,-0.43,-0.38,0.15,-0.94,29.71,44.71,-60.77
41596,-0.79,1.83,-0.43,-0.39,0.14,-0.94,27.76,44.11,-60.62
41624,-0.79,2.07,-0.43,-0.39,0.15,-0.94,27.16,43.21,-59.11
41653,-0.79,2.01,-0.43,-0.39,0.15,-0.95,28.66,43.96,-59.71
41681,-0.73,1.89,-0.49,-0.39,0.15,-0.94,29.41,44.26,-59.71
41710,-0.79,1.95,-0.43,-0.39,0.15,-0.94,28.06,43.81,-60.32
41738,-0.73,2.01,-0.43,-0.38,0.14,-0.93,28.06,43.81,-59.26
41770,-0.73,1.83,-0.49,-0.39,0.15,-0.94,28.96,42.91,-60.77
41799,-0.79,2.01,-0.43,-0.39,0.14,-0.93,28.06,44.11,-61.07
41827,-0.79,2.01,-0.43,-0.38,0.15,-0.94,29.56,44.41,-60.02
41856,-0.73,1.95,-0.49,-0.38,0.15,-0.96,27.76,42.01,-58.96
41884,-0.79,1.89,-0.43,-0.39,0.15,-0.93,26.86,44.26,-60.47
41913,-0.79,2.01,-0.43,-0.39,0.15,-0.94,29.11,43.36,-60.62
41941,-0.73,1.89,-0.43,-0.38,0.15,-0.94,26.41,43.51,-60.47
41973,-0.79,1.89,-0.43,-0.39,0.16,-0.93,27.31,42.31,-58.51
42002,-0.79,2.01,-0.43,-0.38,0.14,-0.95,28.06,43.06,-60.32
42030,-0.73,1.83,-0.43,-0.39,0.15,-0.93,28.81,42.31,-60.02
42059,-0.79,2.07,-0.43,-0.39,0.15,-0.94,28.81,43.81,-59.26
42087,-0.73,1.83,-0.37,-0.39,0.15,-0.94,28.81,44.86,-60.02
42116,-0.73,2.07,-0.37,-0.39,0.16,-0.94,27.31,42.31,-61.07
42144,-0.73,1.95,-0.43,-0.39,0.15,-0.95,27.16,43.96,-60.17
42173,-0.79,1.89,-0.37,-0.39,0.16,-0.93,27.16,43.51,-59.71
42204,-0.79,1.89,-0.37,-0.39,0.15,-0.94,27.61,43.96,-59.41
42233,-0.79,1.95,-0.43,-0.39,0.15,-0.93,27.61,43.21,-58.66
42261,-0.79,2.01,-0.43,-0.38,0.14,-0.95,27.76,44.41,-60.02
42290,-0.79,2.07,-0.37,-0.38,0.15,-0.94,29.71,44.26,-59.41
42318,-0.79,1.95,-0.43,-0.38,0.14,-0.94,28.81,43.81,-60.62
42347,-0.79,1.95,-0.43,-0.39,0.14,-0.94,29.41,42.16,-60.47
42375,-0.85,2.01,-0.37,-0.39,0.14,-0.94,28.51,44.11,-60.32
42408,-0.79,1.95,-0.43,-0.39,0.15,-0.95,28.51,43.06,-59.26
42436,-0.79,1.89,-0.43,-0.38,0.15,-0.94,28.21,42.91,-60.47
42465,-0.79,2.01,-0.43,-0.38,0.15,-0.95,28.06,43.36,-60.62
42493,-0.85,1.95,-0.43,-0.39,0.14,-0.93,28.21,42.16,-59.41
42543,-0.73,1.83,-0.49,-0.39,0.15,-0.94,27.61,42.16,-60.47
42572,-0.73,1.95,-0.49,-0.38,0.14,-0.94,27.91,43.51,-61.22
42600,-0.79,1.89,-0.37,-0.39,0.15,-0.94,27.31,42.31,-60.02
42629,-0.73,1.95,-0.37,-0.39,0.14,-0.94,27.91,44.71,-58.66
42660,-0.73,1.95,-0.43,-0.39,0.15,-0.95,27.76,42.31,-60.02
42689,-0.79,1.95,-0.43,-0.4,0.15,-0.94,27.31,44.11,-59.26
42717,-0.79,1.95,-0.43,-0.38,0.15,-0.93,28.51,42.61,-58.51
42746,-0.85,1.95,-0.43,-0.39,0.15,-0.94,27.31,43.81,-60.32
42774,-0.73,1.95,-0.43,-0.4,0.15,-0.93,28.51,43.36,-59.56
42803,-0.73,1.89,-0.43,-0.39,0.15,-0.94,27.76,44.41,-60.02
42831,-0.79,1.89,-0.43,-0.39,0.14,-0.94,28.06,44.86,-58.96
42860,-0.79,1.89,-0.37,-0.39,0.15,-0.95,27.76,42.01,-60.02
42886,-0.79,2.01,-0.43,-0.39,0.15,-0.93,28.51,44.41,-60.62
42915,-0.79,1.95,-0.49,-0.38,0.15,-0.95,27.76,42.61,-59.26
42943,-0.73,1.95,-0.37,-0.39,0.15,-0.94,28.06,43.81,-60.32
42972,-0.73,1.89,-0.43,-0.4,0.15,-0.94,27.61,43.51,-60.17
43000,-0.79,1.89,-0.49,-0.39,0.15,-0.92,28.96,43.51,-60.77
43029,-0.79,2.01,-0.43,-0.4,0.15,-0.94,27.91,45.01,-60.47
43057,-0.79,1.95,-0.37,-0.39,0.15,-0.93,28.66,42.46,-59.41
43089,-0.85,1.95,-0.43,-0.39,0.15,-0.95,26.71,43.81,-59.26
43118,-0.73,2.01,-0.3,-0.39,0.15,-0.95,29.11,43.36,-61.37
43146,-0.73,1.95,-0.37,-0.39,0.15,-0.94,28.06,43.36,-60.62
43175,-0.79,2.01,-0.3,-0.38,0.14,-0.95,27.91,42.91,-60.17
43203,-0.79,1.83,-0.37,-0.38,0.15,-0.92,29.11,43.81,-60.02
43232,-0.79,1.89,-0.49,-0.39,0.15,-0.94,28.51,43.81,-61.37
43260,-0.73,1.95,-0.43,-0.38,0.15,-0.94,28.21,44.26,-60.77
43289,-0.79,2.01,-0.43,-0.4,0.15,-0.94,27.31,43.36,-61.37
43321,-0.73,2.01,-0.49,-0.39,0.16,-0.95,28.21,43.21,-59.41
43349,-0.79,1.95,-0.43,-0.39,0.16,-0.94,29.11,43.36,-60.62
43378,-0.79,2.01,-0.43,-0.39,0.15,-0.94,28.06,43.36,-60.02
43406,-0.79,1.89,-0.43,-0.38,0.15,-0.94,27.76,44.86,-59.26
43435,-0.79,2.01,-0.49,-0.39,0.16,-0.94,26.86,43.21,-59.71
43463,-0.79,1.89,-0.43,-0.39,0.14,-0.94,27.61,45.01,-60.47
43492,-0.79,1.95,-0.43,-0.39,0.15,-0.94,28.81,43.06,-58.51
43524,-0.79,1.89,-0.43,-0.39,0.15,-0.94,27.76,43.36,-61.67
43552,-0.73,1.95,-0.37,-0.39,0.15,-0.94,29.11,42.61,-59.56
43581,-0.73,1.95,-0.43,-0.39,0.15,-0.94,28.81,43.36,-59.56
43609,-0.79,1.95,-0.43,-0.39,0.15,-0.94,27.01,42.61,-59.26
43638,-0.79,1.89,-0.43,-0.39,0.15,-0.93,27.31,43.36,-59.56
43666,-0.73,1.95,-0.37,-0.4,0.14,-0.95,29.11,44.41,-59.56
43695,-0.73,2.01,-0.49,-0.38,0.14,-0.93,28.21,43.21,-60.47
43723,-0.79,2.01,-0.43,-0.38,0.15,-0.94,27.61,42.91,-60.17
43755,-0.73,2.01,-0.43,-0.39,0.15,-0.94,28.06,43.06,-59.56
43784,-0.79,1.95,-0.43,-0.39,0.15,-0.94,28.21,43.96,-59.41
43812,-0.73,1.89,-0.43,-0.38,0.14,-0.94,28.51,43.06,-59.56
43841,-0.79,1.95,-0.49,-0.4,0.15,-0.93,27.91,43.96,-59.11
43869,-0.79,1.95,-0.37,-0.39,0.14,-0.95,27.76,43.81,-60.62
43898,-0.73,1.95,-0.37,-0.39,0.14,-0.94,28.51,43.81,-60.02
43926,-0.79,1.89,-0.37,-0.38,0.15,-0.94,28.51,43.36,-59.26
43958,-0.79,1.89,-0.43,-0.39,0.14,-0.93,27.16,45.01,-62.27
43987,-0.73,1.95,-0.37,-0.39,0.16,-0.95,28.81,43.06,-61.37
44015,-0.85,2.01,-0.43,-0.39,0.15,-0.94,29.56,43.81,-60.32
44043,-0.79,2.01,-0.43,-0.38,0.14,-0.93,27.61,43.96,-59.11
44072,-0.79,1.95,-0.43,-0.39,0.16,-0.94,28.81,43.36,-61.37
44100,-0.73,1.95,-0.43,-0.39,0.15,-0.93,28.81,43.36,-59.56
44129,-0.79,1.95,-0.37,-0.38,0.14,-0.96,28.81,43.36,-60.32
44157,-0.73,1.89,-0.43,-0.39,0.15,-0.94,29.41,43.51,-59.41
44189,-0.73,2.01,-0.43,-0.39,0.13,-0.95,27.31,42.31,-60.62
44218,-0.79,1.89,-0.49,-0.39,0.15,-0.94,28.21,44.26,-60.77
44246,-0.73,2.01,-0.37,-0.39,0.15,-0.93,28.51,43.81,-59.26
44275,-0.79,1.95,-0.43,-0.38,0.15,-0.94,28.21,43.21,-60.17
44315,-0.79,1.95,-0.43,-0.39,0.15,-0.93,27.01,42.61,-59.56
44343,-0.73,1.95,-0.43,-0.39,0.15,-0.94,27.76,42.61,-59.56
44372,-0.79,1.95,-0.43,-0.38,0.15,-0.94,27.16,43.21,-60.17
44413,-0.73,1.89,-0.37,-0.38,0.15,-0.93,27.91,43.96,-59.41
44443,-0.79,2.01,-0.37,-0.39,0.14,-0.94,27.91,42.46,-60.77
44474,-0.79,1.89,-0.49,-0.38,0.15,-0.94,27.76,43.06,-61.07
44505,-0.73,1.95,-0.37,-0.39,0.16,-0.94,28.21,44.71,-59.71
44535,-0.73,2.01,-0.43,-0.39,0.15,-0.93,27.76,43.06,-60.32
44566,-0.79,1.89,-0.43,-0.38,0.15,-0.93,28.06,44.41,-60.32
44596,-0.79,2.01,-0.43,-0.39,0.14,-0.94,27.76,43.36,-59.26
44627,-0.79,1.89,-0.43,-0.39,0.14,-0.94,28.21,42.16,-59.71
44661,-0.73,1.95,-0.43,-0.39,0.14,-0.95,29.56,43.06,-59.56
44692,-0.73,1.95,-0.43,-0.38,0.16,-0.93,29.41,43.51,-59.71
44722,-0.73,1.89,-0.43,-0.39,0.15,-0.95,27.31,43.81,-59.56
44753,-0.79,2.01,-0.37,-0.39,0.15,-0.94,29.11,44.41,-61.07
44783,-0.73,1.89,-0.37,-0.39,0.15,-0.94,28.06,43.06,-60.32
44814,-0.79,1.95,-0.37,-0.38,0.15,-0.94,28.06,43.81,-59.26
44845,-0.79,1.95,-0.37,-0.39,0.15,-0.94,26.41,43.51,-58.66
44879,-0.79,1.95,-0.43,-0.39,0.15,-0.95,27.01,41.56,-61.07
44909,-0.79,2.01,-0.43,-0.38,0.15,-0.95,28.06,42.61,-59.26
44940,-0.73,1.95,-0.43,-0.39,0.15,-0.93,28.51,43.81,-61.37
44971,-0.73,1.89,-0.37,-0.39,0.15,-0.94,28.06,42.31,-60.02
45001,-0.73,1.89,-0.43,-0.39,0.15,-0.94,29.56,43.06,-61.07
45032,-0.79,2.01,-0.43,-0.39,0.14,-0.95,30.31,43.36,-59.26
45063,-0.73,1.95,-0.43,-0.39,0.14,-0.95,29.11,44.11,-59.56
45100,-0.73,1.95,-0.43,-0.39,0.15,-0.94,28.96,42.91,-59.11
45134,-0.79,1.95,-0.49,-0.38,0.15,-0.94,28.06,41.56,-59.56
45165,-0.79,1.89,-0.49,-0.39,0.14,-0.94,26.86,45.31,-61.52
45195,-0.79,1.95,-0.37,-0.38,0.15,-0.93,29.11,43.06,-61.67
45226,-0.79,1.95,-0.43,-0.39,0.15,-0.94,28.51,43.36,-60.32
45256,-0.73,1.95,-0.43,-0.39,0.15,-0.94,29.11,43.06,-61.67
45287,-0.73,1.95,-0.43,-0.39,0.15,-0.95,29.11,44.41,-58.96
45318,-0.67,2.07,-0.37,-0.39,0.15,-0.94,27.16,44.26,-58.66
45352,-0.73,1.89,-0.49,-0.39,0.14,-0.94,29.56,44.86,-61.37
45383,-0.79,1.95,-0.37,-0.4,0.15,-0.94,28.51,42.61,-60.32
45413,-0.79,2.01,-0.43,-0.39,0.15,-0.93,28.66,42.91,-60.17
45444,-0.79,2.13,-0.3,-0.39,0.14,-0.95,29.41,43.96,-60.47
45474,-0.79,2.01,-0.49,-0.39,0.14,-0.93,27.91,43.21,-59.71
45505,-0.79,1.95,-0.43,-0.39,0.15,-0.93,29.11,43.06,-58.96
45536,-0.79,1.95,-0.49,-0.38,0.14,-0.94,27.31,42.61,-60.02
45566,-0.67,1.95,-0.43,-0.39,0.14,-0.93,28.66,40.96,-59.11
45601,-0.73,2.01,-0.43,-0.4,0.14,-0.94,27.61,43.21,-59.41
45631,-0.79,1.95,-0.37,-0.39,0.15,-0.93,27.61,43.96,-59.41
45662,-0.79,2.01,-0.37,-0.38,0.15,-0.94,26.71,43.06,-58.96
45693,-0.79,1.89,-0.43,-0.39,0.15,-0.94,28.66,45.01,-61.22
45723,-0.73,1.89,-0.43,-0.39,0.15,-0.94,27.76,43.36,-60.32
45754,-0.73,1.95,-0.43,-0.39,0.15,-0.94,29.41,42.91,-60.17
45784,-0.73,1.95,-0.3,-0.39,0.15,-0.93,28.21,42.46,-59.41
45818,-0.79,1.95,-0.43,-0.38,0.15,-0.94,27.16,43.96,-61.22
45849,-0.85,1.89,-0.43,-0.4,0.14,-0.94,27.76,44.86,-60.32
45880,-0.85,1.95,-0.37,-0.4,0.15,-0.94,28.81,42.61,-60.02
45910,-0.79,1.95,-0.37,-0.39,0.15,-0.94,28.81,44.11,-60.32
45941,-0.73,1.95,-0.43,-0.39,0.15,-0.93,28.96,42.16,-59.71
45972,-0.79,1.95,-0.43,-0.39,0.15,-0.94,28.96,43.51,-60.47
46002,-0.73,1.95,-0.37,-0.39,0.15,-0.94,27.91,43.96,-59.71
46033,-0.73,1.95,-0.37,-0.38,0.15,-0.93,28.96,42.46,-59.41
46067,-0.73,1.95,-0.37,-0.39,0.15,-0.95,28.81,44.11,-58.96
46098,-0.73,1.89,-0.43,-0.39,0.16,-0.94,28.21,44.26,-60.17
46128,-0.67,1.95,-0.43,-0.39,0.16,-0.95,27.16,43.21,-60.77
46185,-0.79,1.95,-0.43,-0.38,0.15,-0.93,28.21,43.21,-59.71
46216,-0.79,1.95,-0.49,-0.38,0.15,-0.94,27.61,43.51,-59.71
46247,-0.73,1.95,-0.43,-0.39,0.15,-0.94,27.76,44.11,-61.37
46277,-0.79,1.95,-0.37,-0.4,0.15,-0.93,28.66,43.96,-59.71
46311,-0.79,1.95,-0.43,-0.39,0.14,-0.94,27.01,43.81,-60.62
46342,-0.79,1.89,-0.43,-0.39,0.15,-0.93,27.61,43.51,-60.17
46373,-0.79,1.89,-0.43,-0.39,0.15,-0.93,28.21,43.21,-61.22
46403,-0.79,1.95,-0.43,-0.39,0.14,-0.95,28.06,43.36,-60.02
46434,-0.79,1.95,-0.37,-0.39,0.16,-0.93,28.66,42.46,-61.52
46464,-0.79,1.95,-0.43,-0.39,0.15,-0.95,27.91,42.16,-60.77
46495,-0.79,1.95,-0.43,-0.39,0.14,-0.95,28.66,42.91,-59.71
46526,-0.79,1.95,-0.37,-0.39,0.15,-0.95,27.76,42.61,-60.62
46560,-0.79,1.95,-0.37,-0.39,0.15,-0.94,28.51,42.61,-60.02
46590,-0.79,1.95,-0.37,-0.39,0.15,-0.94,28.21,44.71,-60.47
46621,-0.79,2.01,-0.37,-0.39,0.15,-0.94,27.01,43.06,-58.96
46652,-0.79,1.95,-0.37,-0.39,0.15,-0.95,27.61,41.71,-58.66
46682,-0.79,1.89,-0.37,-0.39,0.15,-0.95,29.56,42.01,-60.32
46713,-0.73,1.89,-0.37,-0.39,0.15,-0.92,28.21,42.91,-62.27
46744,-0.79,1.95,-0.43,-0.39,0.15,-0.95,27.76,44.41,-59.56
46774,-0.73,1.95,-0.43,-0.39,0.15,-0.93,30.31,43.06,-60.02
46803,-0.79,1.95,-0.43,-0.39,0.15,-0.94,27.91,44.26,-60.17
46833,-0.73,1.95,-0.43,-0.38,0.15,-0.94,28.51,44.11,-60.32
46864,-0.73,1.89,-0.49,-0.39,0.15,-0.93,27.76,43.36,-61.07
46895,-0.79,1.95,-0.49,-0.39,0.14,-0.94,28.51,44.11,-60.02
46925,-0.79,1.95,-0.49,-0.39,0.15,-0.94,27.61,44.26,-60.77
46956,-0.67,1.95,-0.37,-0.39,0.14,-0.94,28.81,42.61,-59.56
46987,-0.79,1.95,-0.43,-0.39,0.14,-0.94,28.21,45.01,-58.66
47021,-0.79,2.01,-0.37,-0.39,0.14,-0.94,28.81,41.56,-61.07
47051,-0.79,1.95,-0.43,-0.39,0.15,-0.94,28.66,42.91,-58.66
47082,-0.73,1.95,-0.43,-0.4,0.15,-0.94,28.81,44.11,-60.62
47112,-0.79,1.95,-0.43,-0.38,0.16,-0.94,27.76,43.36,-58.51
47143,-0.73,1.95,-0.43,-0.39,0.15,-0.94,28.66,42.16,-60.47
47174,-0.73,1.95,-0.37,-0.39,0.15,-0.95,27.91,42.16,-60.47
47204,-0.79,2.01,-0.43,-0.4,0.15,-0.96,28.06,42.01,-60.32
47235,-0.73,2.01,-0.43,-0.39,0.15,-0.95,28.51,42.61,-60.02
47269,-0.73,1.89,-0.43,-0.39,0.15,-0.92,28.21,42.91,-59.41
47300,-0.79,1.95,-0.43,-0.38,0.15,-0.94,28.51,43.36,-60.62
47330,-0.73,1.95,-0.37,-0.39,0.15,-0.93,27.16,42.46,-58.36
47361,-0.73,1.95,-0.43,-0.39,0.15,-0.95,28.51,43.36,-60.62
47392,-0.79,1.95,-0.43,-0.39,0.14,-0.94,28.21,43.21,-59.11
47422,-0.73,1.89,-0.43,-0.39,0.15,-0.95,27.61,42.46,-61.52
47453,-0.73,1.89,-0.43,-0.4,0.14,-0.94,27.91,43.96,-60.17
47487,-0.79,1.95,-0.43,-0.39,0.15,-0.93,27.91,42.91,-60.77
47517,-0.79,2.01,-0.43,-0.39,0.15,-0.95,27.91,43.96,-59.11
47548,-0.79,2.01,-0.43,-0.39,0.14,-0.94,28.21,42.91,-59.71
47579,-0.73,1.95,-0.37,-0.39,0.15,-0.93,27.31,43.06,-58.96
47609,-0.73,1.95,-0.37,-0.39,0.15,-0.95,27.91,43.21,-61.22
47640,-0.73,1.95,-0.43,-0.38,0.15,-0.93,28.21,43.21,-60.77
47671,-0.79,1.95,-0.37,-0.38,0.15,-0.94,28.66,43.96,-59.41
47701,-0.79,2.01,-0.43,-0.38,0.15,-0.94,27.61,44.71,-60.17
47735,-0.79,1.95,-0.49,-0.39,0.15,-0.94,27.76,42.61,-59.56
47766,-0.79,1.95,-0.43,-0.39,0.15,-0.94,28.81,44.11,-60.62
47797,-0.79,1.95,-0.43,-0.39,0.15,-0.93,28.21,43.21,-59.11
47827,-0.79,2.01,-0.49,-0.4,0.16,-0.94,28.51,42.61,-59.56
47858,-0.85,1.95,-0.43,-0.39,0.14,-0.95,28.21,43.21,-59.71
47888,-0.79,1.95,-0.49,-0.39,0.14,-0.93,28.96,42.46,-58.36
47919,-0.79,1.95,-0.49,-0.39,0.15,-0.94,28.21,42.46,-60.17
47953,-0.73,1.89,-0.43,-0.39,0.14,-0.94,28.51,44.86,-58.51
47984,-0.73,1.95,-0.49,-0.38,0.15,-0.93,27.91,43.51,-60.47
48014,-0.79,1.95,-0.49,-0.38,0.14,-0.94,26.11,43.21,-60.77
48052,-0.79,1.95,-0.37,-0.37,0.15,-0.93,29.41,43.96,-61.82
48082,-0.79,2.01,-0.43,-0.39,0.15,-0.95,27.91,43.96,-59.11
48113,-0.79,1.95,-0.43,-0.38,0.15,-0.95,28.51,43.81,-60.32
48143,-0.79,1.95,-0.49,-0.39,0.14,-0.94,29.41,42.46,-59.41
48174,-0.73,1.95,-0.43,-0.39,0.14,-0.93,27.16,43.21,-60.47
48208,-0.79,1.95,-0.43,-0.39,0.15,-0.94,29.56,43.36,-60.62
48239,-0.73,1.89,-0.43,-0.39,0.15,-0.93,29.71,43.21,-59.11
48270,-0.73,1.95,-0.37,-0.39,0.15,-0.94,27.91,42.91,-59.71
48300,-0.79,1.95,-0.49,-0.4,0.14,-0.94,28.21,43.96,-59.41
48331,-0.73,1.95,-0.43,-0.38,0.15,-0.95,27.16,43.96,-59.11
48362,-0.73,1.89,-0.43,-0.38,0.14,-0.93,27.91,43.96,-60.17
48392,-0.79,1.89,-0.43,-0.39,0.15,-0.93,27.76,42.61,-60.32
48426,-0.73,1.89,-0.43,-0.39,0.15,-0.95,27.31,42.61,-60.02
48457,-0.79,2.01,-0.43,-0.39,0.15,-0.94,28.06,44.41,-59.56
48488,-0.85,1.95,-0.43,-0.39,0.16,-0.94,28.21,42.91,-60.47
48518,-0.73,1.95,-0.43,-0.39,0.15,-0.94,28.21,42.91,-60.47
48549,-0.79,1.95,-0.37,-0.39,0.15,-0.95,27.31,44.86,-60.32
48579,-0.73,1.89,-0.37,-0.38,0.15,-0.94,26.86,42.91,-59.71
48610,-0.73,1.95,-0.37,-0.39,0.15,-0.93,28.06,43.06,-58.21
48641,-0.73,1.95,-0.37,-0.39,0.15,-0.94,28.96,44.26,-60.77
48675,-0.73,1.95,-0.37,-0.39,0.15,-0.94,28.96,43.96,-60.17
48705,-0.79,1.95,-0.49,-0.39,0.15,-0.95,29.41,42.91,-59.41
48736,-0.79,1.95,-0.43,-0.39,0.14,-0.94,28.51,41.26,-59.56
48767,-0.79,1.95,-0.43,-0.38,0.15,-0.96,28.96,43.96,-59.71
48797,-0.79,1.95,-0.43,-0.39,0.15,-0.94,28.51,42.61,-60.62
48828,-0.73,1.95,-0.43,-0.39,0.16,-0.95,27.31,44.11,-59.56
48859,-0.73,1.95,-0.37,-0.39,0.15,-0.94,28.96,41.71,-59.41
48893,-0.79,1.95,-0.43,-0.39,0.14,-0.94,28.51,43.36,-59.26
48923,-0.73,2.01,-0.43,-0.38,0.15,-0.95,29.71,43.96,-60.47
48954,-0.79,1.89,-0.37,-0.39,0.15,-0.94,27.61,43.96,-59.71
48985,-0.79,1.95,-0.43,-0.39,0.15,-0.94,27.61,42.91,-60.47
49015,-0.79,1.95,-0.43,-0.4,0.16,-0.94,26.71,42.01,-59.56
49052,-0.79,1.95,-0.43,-0.39,0.14,-0.94,28.66,43.51,-61.22
49083,-0.73,1.95,-0.43,-0.39,0.15,-0.96,27.01,43.36,-60.02
49114,-0.79,1.89,-0.49,-0.39,0.14,-0.92,28.06,43.36,-60.02
49148,-0.73,2.01,-0.37,-0.39,0.15,-0.93,28.81,43.36,-60.02
49178,-0.73,1.95,-0.43,-0.4,0.15,-0.94,28.51,43.81,-60.02
49209,-0.79,1.95,-0.37,-0.38,0.14,-0.94,28.06,43.81,-60.02
49240,-0.73,1.95,-0.37,-0.38,0.15,-0.96,28.66,43.21,-59.11
49270,-0.73,1.95,-0.37,-0.39,0.14,-0.95,27.61,44.26,-59.71
49301,-0.73,1.89,-0.37,-0.39,0.15,-0.93,28.81,43.06,-61.07
49332,-0.79,2.01,-0.37,-0.39,0.14,-0.94,29.41,44.26,-59.71
49366,-0.79,1.95,-0.43,-0.39,0.14,-0.94,28.06,43.36,-60.32
49396,-0.85,1.95,-0.43,-0.4,0.15,-0.94,27.16,43.96,-60.77
49427,-0.79,1.95,-0.37,-0.38,0.15,-0.94,28.21,42.91,-60.77
49458,-0.79,1.95,-0.43,-0.38,0.14,-0.94,27.91,42.91,-60.17
49488,-0.73,1.95,-0.43,-0.39,0.15,-0.94,28.21,43.51,-60.77
49519,-0.73,1.95,-0.37,-0.39,0.15,-0.94,27.91,42.46,-59.41
49549,-0.79,1.95,-0.43,-0.39,0.15,-0.94,28.06,43.81,-59.26
49580,-0.79,1.95,-0.43,-0.39,0.15,-0.95,27.01,44.41,-60.02
49614,-0.79,1.95,-0.37,-0.39,0.15,-0.93,28.51,43.06,-57.91
49645,-0.85,1.95,-0.37,-0.39,0.15,-0.93,28.96,44.26,-59.11
49675,-0.79,1.95,-0.37,-0.4,0.15,-0.93,27.91,43.21,-60.17
49706,-0.73,2.01,-0.37,-0.38,0.15,-0.94,27.61,43.21,-60.77
49737,-0.73,1.95,-0.37,-0.39,0.15,-0.95,26.71,45.16,-59.56
49767,-0.73,1.89,-0.37,-0.39,0.14,-0.94,28.21,43.21,-60.77
49798,-0.79,1.95,-0.37,-0.39,0.15,-0.94,28.96,42.91,-59.41
49832,-0.85,1.95,-0.49,-0.38,0.15,-0.94,28.81,43.06,-59.26
49863,-0.73,2.01,-0.43,-0.39,0.14,-0.94,28.21,42.91,-60.77
49893,-0.73,1.89,-0.37,-0.39,0.15,-0.95,28.96,43.21,-59.71
49946,-0.79,1.95,-0.37,-0.39,0.15,-0.94,28.96,42.16,-60.17
49977,-0.73,1.95,-0.43,-0.39,0.16,-0.95,27.01,43.06,-59.26
50007,-0.79,1.95,-0.37,-0.39,0.15,-0.94,27.76,43.36,-60.02
50038,-0.73,1.95,-0.37,-0.39,0.15,-0.94,26.26,44.41,-60.62
50068,-0.73,1.95,-0.49,-0.39,0.14,-0.95,28.21,44.71,-61.22
50102,-0.79,1.95,-0.43,-0.39,0.15,-0.94,27.16,43.21,-60.47
50133,-0.79,1.95,-0.43,-0.39,0.14,-0.95,27.76,44.86,-59.56
50164,-0.79,1.95,-0.43,-0.39,0.15,-0.94,26.86,41.41,-59.71
50194,-0.79,1.95,-0.43,-0.39,0.15,-0.95,27.31,42.61,-61.07
50225,-0.79,1.95,-0.43,-0.39,0.16,-0.95,28.66,42.16,-60.17
50256,-0.79,1.95,-0.43,-0.38,0.13,-0.95,27.76,44.11,-60.02
50286,-0.85,1.95,-0.43,-0.39,0.15,-0.95,27.31,43.81,-60.02
50320,-0.79,1.95,-0.37,-0.39,0.15,-0.95,28.21,43.21,-58.66
50351,-0.79,2.01,-0.43,-0.4,0.15,-0.95,27.91,45.01,-60.47
50382,-0.73,1.95,-0.43,-0.39,0.14,-0.95,28.66,42.46,-60.47
50412,-0.79,1.89,-0.43,-0.38,0.15,-0.94,27.76,43.06,-59.56
50443,-0.73,1.95,-0.43,-0.39,0.15,-0.95,27.76,43.06,-59.26
50474,-0.79,1.95,-0.43,-0.38,0.15,-0.93,27.01,43.06,-60.62
50504,-0.79,1.95,-0.43,-0.38,0.15,-0.95,28.51,43.06,-61.37
50535,-0.85,1.89,-0.43,-0.38,0.15,-0.95,27.31,43.81,-60.62
50569,-0.79,1.95,-0.37,-0.39,0.15,-0.92,28.81,43.36,-59.56
50600,-0.79,1.95,-0.37,-0.38,0.15,-0.94,28.81,42.31,-60.32
50630,-0.79,1.95,-0.43,-0.39,0.15,-0.94,28.66,42.91,-60.47
50661,-0.79,1.95,-0.43,-0.38,0.15,-0.94,27.16,43.96,-61.82
50692,-0.79,1.95,-0.43,-0.38,0.14,-0.94,27.16,43.51,-59.71
50722,-0.73,1.95,-0.37,-0.38,0.15,-0.93,28.06,43.36,-60.02
50753,-0.73,1.95,-0.43,-0.38,0.16,-0.94,28.21,44.26,-59.71
50784,-0.79,1.95,-0.43,-0.39,0.15,-0.95,28.66,42.16,-60.47
50812,-0.79,1.89,-0.49,-0.39,0.15,-0.94,28.66,42.16,-60.77
50843,-0.73,1.89,-0.37,-0.39,0.15,-0.94,28.81,43.36,-57.91
50873,-0.79,1.95,-0.43,-0.38,0.15,-0.94,28.51,44.11,-59.56
50904,-0.73,1.95,-0.49,-0.39,0.15,-0.95,27.91,42.16,-61.22
50935,-0.73,1.95,-0.43,-0.39,0.15,-0.95,29.11,44.11,-60.62
50965,-0.73,1.95,-0.43,-0.39,0.14,-0.94,29.11,43.81,-60.62
50996,-0.73,1.89,-0.43,-0.4,0.14,-0.93,27.31,44.11,-60.62
51030,-0.79,1.95,-0.37,-0.4,0.15,-0.94,27.91,42.91,-60.47
51061,-0.79,1.95,-0.43,-0.39,0.14,-0.94,28.51,43.81,-60.32
51091,-0.73,1.95,-0.37,-0.39,0.16,-0.96,27.76,44.41,-59.56
51122,-0.73,1.95,-0.43,-0.39,0.15,-0.95,28.81,45.16,-60.32
51153,-0.79,1.95,-0.37,-0.39,0.15,-0.94,27.16,43.51,-60.47
51183,-0.73,1.95,-0.3,-0.39,0.16,-0.94,27.16,43.51,-59.41
51214,-0.73,1.95,-0.43,-0.38,0.15,-0.94,27.61,45.01,-60.47
51245,-0.79,1.89,-0.43,-0.39,0.15,-0.95,28.06,43.81,-60.02
51279,-0.79,1.89,-0.3,-0.39,0.15,-0.93,28.96,43.96,-59.11
51309,-0.79,1.89,-0.43,-0.39,0.15,-0.94,27.91,44.26,-60.47
51340,-0.73,1.89,-0.37,-0.4,0.15,-0.94,28.21,43.51,-60.17
51371,-0.79,1.83,-0.43,-0.39,0.15,-0.96,28.96,43.96,-60.77
51401,-0.79,1.95,-0.37,-0.39,0.15,-0.94,28.06,44.11,-60.32
51432,-0.73,1.95,-0.37,-0.39,0.15,-0.94,27.91,43.21,-60.17
51462,-0.79,1.89,-0.37,-0.39,0.15,-0.93,27.61,42.91,-60.17
51496,-0.85,1.95,-0.43,-0.38,0.13,-0.94,28.21,43.51,-59.71
51527,-0.73,1.89,-0.43,-0.39,0.15,-0.94,28.51,42.61,-60.32
51558,-0.79,1.95,-0.43,-0.38,0.15,-0.94,28.66,42.46,-59.41
51588,-0.73,1.95,-0.37,-0.39,0.15,-0.93,26.71,44.11,-59.26
51619,-0.73,1.95,-0.37,-0.4,0.15,-0.94,28.81,43.81,-60.32
51650,-0.73,1.95,-0.43,-0.39,0.15,-0.94,28.21,43.51,-60.47
51680,-0.79,1.95,-0.43,-0.39,0.15,-0.94,27.91,43.51,-61.22
51711,-0.79,1.95,-0.37,-0.39,0.15,-0.92,29.11,42.31,-60.32
51745,-0.73,1.95,-0.37,-0.39,0.15,-0.95,29.71,43.51,-61.22
51776,-0.73,1.95,-0.43,-0.38,0.15,-0.94,27.61,43.51,-59.71
51806,-0.79,1.95,-0.43,-0.39,0.16,-0.94,28.21,43.21,-59.71
51849,-0.73,1.89,-0.37,-0.39,0.15,-0.93,28.96,43.21,-59.71
51880,-0.73,1.95,-0.43,-0.39,0.15,-0.95,28.06,42.01,-61.37
51910,-0.79,1.95,-0.43,-0.39,0.15,-0.94,28.21,43.51,-60.77
51941,-0.79,1.95,-0.43,-0.39,0.15,-0.93,26.86,42.46,-60.47
51975,-0.79,1.95,-0.43,-0.4,0.16,-0.93,27.61,43.51,-59.71
52006,-0.79,1.89,-0.43,-0.39,0.15,-0.95,28.96,42.91,-61.52
52036,-0.79,1.89,-0.43,-0.39,0.14,-0.94,28.66,42.91,-61.22
52067,-0.73,1.95,-0.43,-0.38,0.15,-0.94,28.06,44.11,-61.07
52097,-0.79,1.95,-0.43,-0.4,0.14,-0.94,27.61,44.71,-60.77
52128,-0.73,1.95,-0.37,-0.39,0.15,-0.94,28.06,42.31,-60.62
52159,-0.73,1.95,-0.37,-0.38,0.14,-0.95,27.31,44.86,-60.32
52189,-0.73,1.95,-0.43,-0.39,0.15,-0.95,27.01,43.06,-61.67
52224,-0.79,1.89,-0.49,-0.39,0.15,-0.94,27.76,43.81,-60.02
52254,-0.79,1.83,-0.49,-0.38,0.14,-0.95,28.51,44.11,-60.32
52285,-0.79,1.89,-0.43,-0.39,0.16,-0.93,28.06,44.41,-61.07
52315,-0.85,1.89,-0.43,-0.39,0.15,-0.94,27.91,43.51,-60.77
52346,-0.73,2.01,-0.43,-0.39,0.15,-0.95,28.06,42.31,-59.56
52377,-0.85,1.95,-0.37,-0.39,0.15,-0.94,27.91,42.91,-59.41
52407,-0.73,1.89,-0.37,-0.39,0.15,-0.94,30.01,44.26,-60.77
52441,-0.73,1.95,-0.37,-0.38,0.15,-0.95,29.41,43.51,-61.22
52472,-0.73,1.95,-0.43,-0.39,0.14,-0.94,27.31,43.36,-60.62
52503,-0.73,1.89,-0.49,-0.38,0.15,-0.94,27.76,42.31,-58.51
52533,-0.79,1.95,-0.43,-0.39,0.15,-0.95,27.91,43.51,-58.06
52564,-0.79,1.95,-0.49,-0.39,0.14,-0.93,28.51,43.36,-60.02
52595,-0.73,2.01,-0.49,-0.4,0.15,-0.94,27.61,43.21,-59.11
52625,-0.79,1.95,-0.37,-0.39,0.16,-0.95,26.71,43.81,-60.62
52656,-0.73,1.95,-0.43,-0.38,0.15,-0.93,28.81,43.81,-59.26
52690,-0.79,1.95,-0.43,-0.39,0.14,-0.94,30.91,42.61,-58.96
52721,-0.79,1.95,-0.43,-0.39,0.14,-0.93,27.76,44.41,-59.56
52751,-0.73,1.95,-0.43,-0.39,0.15,-0.94,28.21,44.71,-59.41
52782,-0.79,1.89,-0.43,-0.38,0.15,-0.94,28.66,42.46,-61.52
52813,-0.73,1.95,-0.43,-0.39,0.15,-0.94,28.51,42.61,-60.62
52843,-0.79,1.95,-0.43,-0.39,0.15,-0.94,29.11,44.41,-59.56
52874,-0.79,1.95,-0.43,-0.38,0.15,-0.94,27.91,43.51,-59.11
52908,-0.79,2.01,-0.37,-0.38,0.14,-0.95,28.96,43.96,-60.17
52939,-0.73,1.95,-0.37,-0.39,0.15,-0.94,27.61,43.96,-59.71
52976,-0.73,1.89,-0.37,-0.38,0.15,-0.94,28.81,42.61,-61.37
53006,-0.79,1.95,-0.37,-0.39,0.14,-0.94,29.71,43.51,-60.77
53037,-0.79,1.95,-0.37,-0.39,0.15,-0.93,28.66,44.26,-59.71
53068,-0.79,1.95,-0.43,-0.4,0.15,-0.94,28.96,43.96,-59.71
53098,-0.73,1.89,-0.49,-0.39,0.16,-0.94,27.16,43.21,-59.71
53129,-0.79,1.95,-0.43,-0.38,0.14,-0.95,27.61,43.21,-58.66
53163,-0.79,1.89,-0.43,-0.39,0.14,-0.94,27.31,43.81,-60.02
53194,-0.79,1.95,-0.43,-0.39,0.15,-0.95,28.21,43.96,-59.41
53225,-0.79,1.89,-0.43,-0.39,0.15,-0.94,29.41,44.26,-60.77
53255,-0.73,1.95,-0.49,-0.39,0.15,-0.94,29.41,43.51,-59.11
53286,-0.79,1.95,-0.37,-0.39,0.16,-0.95,29.41,42.16,-60.77
53316,-0.79,1.95,-0.37,-0.39,0.16,-0.94,28.81,44.11,-61.37
53347,-0.73,1.95,-0.37,-0.38,0.15,-0.93,28.96,41.71,-59.71
53381,-0.79,1.95,-0.43,-0.39,0.14,-0.95,27.31,43.36,-60.62
53412,-0.79,1.89,-0.43,-0.4,0.15,-0.95,27.91,43.21,-59.71
53443,-0.73,1.89,-0.37,-0.39,0.15,-0.94,27.01,43.36,-60.62
53473,-0.79,1.95,-0.43,-0.39,0.14,-0.94,28.66,42.91,-61.22
53504,-0.79,1.95,-0.43,-0.39,0.15,-0.94,28.06,43.36,-60.32
53534,-0.73,1.89,-0.37,-0.39,0.15,-0.94,28.96,43.51,-59.71
53565,-0.79,1.89,-0.37,-0.39,0.15,-0.95,28.96,42.46,-60.77
53596,-0.79,1.95,-0.43,-0.39,0.15,-0.93,28.66,44.71,-60.47
53630,-0.73,1.95,-0.37,-0.39,0.15,-0.94,27.16,44.26,-59.71
53660,-0.73,1.89,-0.37,-0.38,0.15,-0.95,26.41,43.21,-59.41
53691,-0.79,1.95,-0.37,-0.39,0.15,-0.94,28.66,43.51,-60.17
53745,-0.79,1.89,-0.37,-0.38,0.14,-0.94,29.11,43.81,-59.56
53776,-0.79,1.95,-0.43,-0.38,0.14,-0.93,27.91,43.51,-61.52
53807,-0.79,1.89,-0.37,-0.39,0.15,-0.94,29.56,43.81,-57.46
53837,-0.79,2.01,-0.43,-0.39,0.15,-0.95,28.21,42.91,-59.71
53871,-0.79,1.95,-0.37,-0.38,0.15,-0.95,28.06,42.61,-61.07
53902,-0.73,1.95,-0.37,-0.39,0.15,-0.93,27.61,42.46,-61.22
53933,-0.79,1.89,-0.43,-0.38,0.15,-0.93,28.06,43.36,-61.37
53963,-0.79,1.95,-0.37,-0.39,0.16,-0.93,28.51,43.36,-60.32
53994,-0.73,1.95,-0.37,-0.39,0.15,-0.95,27.76,42.61,-61.37
54024,-0.73,1.89,-0.3,-0.39,0.14,-0.94,27.31,44.11,-60.62
54055,-0.79,1.89,-0.37,-0.39,0.15,-0.94,29.11,43.36,-60.02
54086,-0.73,1.95,-0.37,-0.39,0.15,-0.95,28.96,43.51,-59.41
54120,-0.73,1.95,-0.37,-0.39,0.16,-0.93,27.76,41.56,-60.32
54151,-0.79,1.89,-0.43,-0.38,0.15,-0.94,28.21,42.91,-59.71
54181,-0.79,1.95,-0.49,-0.39,0.15,-0.94,26.86,44.26,-59.71
54212,-0.73,1.95,-0.3,-0.39,0.14,-0.94,28.66,43.21,-59.41
54243,-0.67,1.95,-0.37,-0.39,0.15,-0.94,27.76,44.11,-60.32
54273,-0.79,1.89,-0.43,-0.39,0.15,-0.94,27.16,42.91,-60.17
54304,-0.79,1.89,-0.37,-0.38,0.14,-0.93,28.21,41.71,-61.22
54338,-0.79,2.01,-0.37,-0.39,0.14,-0.95,28.66,43.21,-60.47
54369,-0.79,1.95,-0.49,-0.39,0.15,-0.95,28.66,43.96,-60.47
54399,-0.73,2.07,-0.43,-0.39,0.15,-0.95,27.61,43.21,-58.66
54430,-0.79,1.89,-0.43,-0.38,0.15,-0.92,28.51,43.06,-60.02
54460,-0.73,1.95,-0.37,-0.39,0.15,-0.94,28.51,42.61,-59.56
54491,-0.85,1.89,-0.43,-0.39,0.14,-0.93,28.06,43.81,-58.21
54522,-0.85,2.01,-0.43,-0.4,0.15,-0.94,27.31,44.41,-60.62
54552,-0.73,2.01,-0.3,-0.39,0.14,-0.93,27.91,43.51,-59.41
54587,-0.79,2.01,-0.43,-0.38,0.15,-0.94,28.21,43.21,-58.66
54617,-0.79,1.89,-0.49,-0.39,0.14,-0.95,28.66,44.71,-60.77
54648,-0.85,1.95,-0.37,-0.38,0.15,-0.94,27.91,43.96,-60.17
54679,-0.79,1.95,-0.37,-0.38,0.15,-0.94,28.06,43.06,-59.56
54709,-0.73,1.95,-0.37,-0.39,0.15,-0.94,27.91,43.21,-60.47
54740,-0.79,1.89,-0.37,-0.39,0.15,-0.94,28.66,44.26,-58.36
54771,-0.79,1.95,-0.43,-0.39,0.15,-0.95,28.66,43.96,-60.77
54801,-0.79,1.95,-0.43,-0.39,0.15,-0.94,28.06,43.36,-60.32
54830,-0.73,1.95,-0.43,-0.39,0.15,-0.93,27.76,42.01,-60.32
54860,-0.73,1.95,-0.37,-0.38,0.14,-0.95,29.11,45.16,-60.02
54891,-0.79,1.95,-0.37,-0.39,0.15,-0.95,28.66,43.21,-59.41
54922,-0.73,1.83,-0.43,-0.39,0.15,-0.95,27.16,43.21,-59.41
54952,-0.85,1.95,-0.43,-0.39,0.16,-0.95,29.41,44.26,-59.41
54983,-0.85,1.89,-0.37,-0.39,0.14,-0.94,28.96,42.46,-60.17
55014,-0.73,1.95,-0.37,-0.38,0.15,-0.95,28.06,43.81,-61.07
55048,-0.73,2.01,-0.37,-0.39,0.14,-0.94,29.41,43.21,-59.71
55078,-0.79,1.95,-0.43,-0.38,0.15,-0.94,28.51,42.61,-61.67
55109,-0.79,1.95,-0.43,-0.38,0.15,-0.93,28.06,44.11,-59.56
55140,-0.79,1.89,-0.43,-0.39,0.15,-0.94,28.06,44.11,-60.62
55171,-0.73,1.89,-0.43,-0.38,0.14,-0.93,30.01,43.96,-60.47
55201,-0.79,1.89,-0.43,-0.38,0.15,-0.93,27.01,45.16,-58.96
55232,-0.79,1.95,-0.43,-0.39,0.15,-0.95,27.31,44.41,-60.62
55263,-0.79,1.89,-0.37,-0.39,0.15,-0.94,27.61,43.51,-59.41
55297,-0.73,1.89,-0.49,-0.4,0.15,-0.95,28.06,43.81,-61.07
55327,-0.73,1.95,-0.37,-0.39,0.15,-0.93,28.21,43.21,-60.17
55358,-0.79,2.01,-0.43,-0.39,0.15,-0.93,27.01,43.36,-58.96
55389,-0.79,1.95,-0.43,-0.39,0.14,-0.94,28.96,45.01,-60.47
55419,-0.79,2.01,-0.43,-0.39,0.16,-0.95,28.06,44.11,-60.02
55450,-0.79,1.95,-0.43,-0.39,0.15,-0.95,27.91,43.51,-60.77
55481,-0.79,1.89,-0.43,-0.39,0.15,-0.93,27.16,42.91,-59.41
55515,-0.79,1.95,-0.37,-0.39,0.15,-0.94,27.91,43.96,-58.66
55545,-0.79,1.89,-0.37,-0.38,0.15,-0.95,28.06,42.01,-60.02
55576,-0.73,1.95,-0.43,-0.4,0.15,-0.94,27.16,43.96,-58.66
55619,-0.79,1.89,-0.37,-0.39,0.14,-0.93,27.91,41.71,-59.11
55650,-0.79,1.95,-0.37,-0.39,0.15,-0.94,27.91,43.51,-60.47
55681,-0.79,1.95,-0.37,-0.39,0.15,-0.94,28.21,42.91,-60.17
55711,-0.73,2.01,-0.37,-0.39,0.15,-0.94,27.61,44.26,-59.71
55742,-0.79,1.95,-0.43,-0.39,0.15,-0.93,28.51,43.06,-58.96
55776,-0.79,1.89,-0.37,-0.39,0.15,-0.94,27.91,43.21,-61.22
55807,-0.79,1.95,-0.37,-0.39,0.14,-0.93,28.66,43.96,-59.41
55837,-0.79,2.01,-0.43,-0.39,0.15,-0.93,27.76,44.11,-58.96
55868,-0.73,1.95,-0.37,-0.39,0.15,-0.93,28.96,43.21,-60.17
55899,-0.73,1.89,-0.43,-0.39,0.16,-0.94,27.61,42.46,-59.11
55929,-0.79,1.77,-0.43,-0.39,0.16,-0.94,27.76,43.81,-59.56
55960,-0.79,2.01,-0.37,-0.39,0.15,-0.94,27.61,43.51,-59.71
55994,-0.79,1.95,-0.49,-0.38,0.15,-0.94,29.86,43.06,-58.96
56025,-0.79,1.89,-0.43,-0.39,0.15,-0.94,27.01,42.31,-60.62
56055,-0.73,1.83,-0.43,-0.38,0.15,-0.94,28.66,43.51,-60.47
56086,-0.79,2.01,-0.43,-0.39,0.15,-0.95,28.81,42.31,-60.32
56117,-0.79,2.01,-0.37,-0.39,0.14,-0.94,28.81,43.81,-60.32
56147,-0.79,1.89,-0.37,-0.39,0.15,-0.93,28.81,44.41,-60.02
56178,-0.73,1.83,-0.43,-0.39,0.15,-0.95,27.01,44.11,-60.32
56209,-0.85,1.95,-0.43,-0.39,0.15,-0.94,27.61,43.21,-59.71
56243,-0.79,1.95,-0.37,-0.39,0.15,-0.93,28.06,44.41,-59.26
56273,-0.79,1.95,-0.43,-0.38,0.16,-0.95,27.16,43.51,-60.17
56304,-0.73,1.95,-0.37,-0.39,0.15,-0.94,27.01,43.06,-58.96
56335,-0.73,1.89,-0.43,-0.39,0.15,-0.94,29.86,44.41,-60.62
56365,-0.73,1.89,-0.37,-0.4,0.15,-0.93,29.56,44.86,-59.56
56396,-0.79,1.89,-0.37,-0.39,0.15,-0.94,28.81,42.61,-61.07
56427,-0.79,1.95,-0.43,-0.39,0.15,-0.95,28.21,42.91,-59.11
56461,-0.73,1.89,-0.37,-0.39,0.15,-0.94,29.11,43.81,-60.32
56491,-0.79,2.01,-0.43,-0.39,0.15,-0.93,27.61,43.96,-60.77
56522,-0.73,2.01,-0.43,-0.39,0.15,-0.94,27.91,44.71,-60.17
56553,-0.73,1.89,-0.43,-0.39,0.15,-0.95,28.21,43.96,-59.41
56583,-0.73,1.95,-0.37,-0.38,0.15,-0.94,27.16,43.96,-59.71
56614,-0.79,2.01,-0.43,-0.39,0.16,-0.94,28.66,43.96,-59.71
56645,-0.79,1.89,-0.49,-0.39,0.15,-0.94,28.96,42.91,-59.11
56675,-0.79,1.89,-0.43,-0.39,0.15,-0.94,27.61,42.16,-60.47
56709,-0.73,1.95,-0.37,-0.39,0.14,-0.94,28.51,43.06,-61.37
56740,-0.79,1.95,-0.37,-0.39,0.15,-0.94,28.06,44.11,-60.02
56771,-0.79,1.89,-0.37,-0.39,0.16,-0.95,28.96,43.51,-60.77
56801,-0.85,1.95,-0.43,-0.38,0.15,-0.92,27.16,41.41,-59.71
56832,-0.79,1.95,-0.43,-0.39,0.15,-0.94,28.21,43.51,-59.71
56869,-0.73,2.01,-0.43,-0.39,0.15,-0.94,28.51,42.61,-60.62
56900,-0.79,1.89,-0.43,-0.39,0.15,-0.95,30.01,42.46,-60.17
56934,-0.79,1.95,-0.37,-0.4,0.14,-0.94,28.96,43.51,-58.66
56964,-0.79,1.89,-0.37,-0.39,0.16,-0.95,28.96,45.01,-59.71
56995,-0.73,2.01,-0.37,-0.4,0.15,-0.95,28.81,43.36,-60.32
57026,-0.73,1.89,-0.43,-0.38,0.15,-0.93,28.06,43.81,-60.02
57056,-0.73,1.95,-0.43,-0.38,0.15,-0.95,27.91,42.91,-59.11
57087,-0.79,1.95,-0.37,-0.39,0.15,-0.94,26.71,44.11,-60.62
57117,-0.79,1.89,-0.43,-0.38,0.15,-0.95,28.06,43.06,-60.02
57148,-0.79,1.95,-0.37,-0.39,0.14,-0.93,29.41,43.51,-60.47
57182,-0.73,1.89,-0.37,-0.39,0.15,-0.94,29.11,43.81,-59.56
57213,-0.79,1.83,-0.37,-0.39,0.15,-0.94,27.61,43.96,-59.41
57244,-0.73,2.01,-0.37,-0.39,0.15,-0.94,27.31,45.16,-58.96
57274,-0.79,1.95,-0.43,-0.39,0.14,-0.96,28.06,43.81,-60.02
57305,-0.79,1.89,-0.43,-0.39,0.15,-0.93,28.66,43.21,-60.47
57336,-0.67,1.95,-0.37,-0.39,0.15,-0.94,28.81,44.86,-59.26
57366,-0.67,1.95,-0.43,-0.38,0.14,-0.94,27.91,43.21,-61.22
57400,-0.79,1.89,-0.49,-0.39,0.14,-0.95,28.21,43.21,-60.17
57431,-0.79,1.95,-0.37,-0.38,0.15,-0.94,28.66,43.21,-61.82
57461,-0.79,1.89,-0.43,-0.39,0.15,-0.94,29.41,43.51,-59.41
57515,-0.79,1.95,-0.43,-0.39,0.16,-0.94,28.81,43.06,-61.37
57546,-0.79,1.95,-0.49,-0.39,0.16,-0.93,28.51,43.81,-59.26
57576,-0.73,1.95,-0.43,-0.39,0.15,-0.95,29.41,44.26,-60.17
57607,-0.73,1.89,-0.43,-0.39,0.15,-0.94,28.66,43.51,-59.71
57638,-0.79,1.95,-0.43,-0.39,0.15,-0.95,28.21,42.91,-60.17
57672,-0.73,2.01,-0.43,-0.39,0.15,-0.95,27.76,42.61,-58.96
57702,-0.79,2.01,-0.49,-0.39,0.15,-0.94,28.81,43.36,-60.02
57733,-0.73,2.01,-0.37,-0.39,0.14,-0.93,28.06,43.36,-60.32
57764,-0.73,2.01,-0.37,-0.39,0.14,-0.96,28.06,43.81,-60.32
57794,-0.79,2.01,-0.37,-0.39,0.14,-0.94,26.86,43.51,-61.22
57825,-0.73,2.07,-0.43,-0.38,0.14,-0.95,27.61,43.96,-60.17
57856,-0.67,2.13,-0.37,-0.4,0.15,-0.94,28.66,43.96,-60.17
57890,-0.73,2.07,-0.43,-0.39,0.15,-0.94,30.46,43.21,-60.17
57920,-0.73,1.95,-0.49,-0.38,0.15,-0.95,29.11,44.11,-60.62
57951,-0.73,2.01,-0.37,-0.39,0.15,-0.93,29.71,43.21,-60.47
57982,-0.79,2.01,-0.37,-0.38,0.14,-0.94,28.21,42.91,-60.17
58012,-0.79,1.89,-0.43,-0.38,0.15,-0.93,28.51,43.06,-60.62
58043,-0.73,1.95,-0.43,-0.39,0.15,-0.93,28.06,44.11,-59.56
58074,-0.85,1.95,-0.43,-0.39,0.15,-0.94,28.66,43.21,-58.66
58104,-0.73,1.83,-0.43,-0.38,0.14,-0.93,27.01,42.31,-59.56
58138,-0.79,1.95,-0.37,-0.38,0.15,-0.96,27.61,44.71,-60.17
58169,-0.79,1.95,-0.37,-0.39,0.14,-0.94,29.41,42.46,-59.71
58200,-0.73,1.89,-0.37,-0.39,0.15,-0.93,28.96,44.71,-60.17
58230,-0.73,1.89,-0.37,-0.38,0.15,-0.94,28.51,43.36,-60.32
58261,-0.73,1.95,-0.37,-0.4,0.15,-0.93,27.76,43.81,-59.26
58292,-0.79,1.89,-0.37,-0.38,0.15,-0.94,27.31,43.06,-60.02
58322,-0.79,1.95,-0.43,-0.39,0.14,-0.95,28.21,42.91,-59.71
58356,-0.85,1.95,-0.43,-0.39,0.16,-0.93,28.21,43.21,-60.77
58387,-0.79,1.95,-0.49,-0.39,0.16,-0.95,28.06,43.06,-60.32
58417,-0.79,1.89,-0.37,-0.38,0.15,-0.94,28.21,43.51,-60.47
58448,-0.73,1.95,-0.37,-0.39,0.15,-0.94,29.41,43.21,-60.77
58479,-0.79,1.89,-0.3,-0.39,0.15,-0.95,27.76,43.81,-61.37
58509,-0.79,1.89,-0.37,-0.39,0.15,-0.94,28.51,42.31,-61.67
58540,-0.79,2.01,-0.43,-0.39,0.15,-0.95,28.81,44.11,-61.07
58571,-0.73,1.95,-0.37,-0.39,0.15,-0.94,27.91,42.46,-61.22
58605,-0.73,1.83,-0.43,-0.4,0.15,-0.95,28.66,43.96,-60.17
58635,-0.79,1.95,-0.43,-0.39,0.15,-0.94,27.91,43.51,-61.22
58666,-0.73,1.95,-0.37,-0.38,0.15,-0.93,28.06,43.06,-60.02
58696,-0.73,1.89,-0.43,-0.39,0.15,-0.94,27.76,42.01,-60.32
58727,-0.73,1.95,-0.43,-0.39,0.15,-0.95,28.51,43.81,-60.32
58758,-0.85,1.89,-0.43,-0.39,0.16,-0.94,28.51,44.11,-60.32
58788,-0.79,1.89,-0.37,-0.39,0.14,-0.94,27.31,43.36,-61.07
58819,-0.79,1.89,-0.43,-0.39,0.15,-0.94,28.06,43.81,-60.02
58847,-0.79,1.89,-0.43,-0.39,0.15,-0.95,27.91,42.46,-60.77
58878,-0.79,1.95,-0.43,-0.4,0.15,-0.95,28.96,42.46,-59.41
58909,-0.67,1.95,-0.49,-0.38,0.16,-0.95,28.96,43.21,-59.11
58940,-0.79,1.95,-0.43,-0.39,0.15,-0.94,30.61,43.81,-60.02
58970,-0.79,1.83,-0.43,-0.39,0.15,-0.94,28.51,42.61,-61.07
59001,-0.67,1.95,-0.43,-0.39,0.15,-0.95,29.71,44.26,-60.77
59031,-0.73,1.89,-0.43,-0.38,0.15,-0.94,27.31,43.36,-61.07
59065,-0.79,1.89,-0.43,-0.39,0.15,-0.93,28.06,42.61,-60.02
59096,-0.79,2.01,-0.43,-0.39,0.14,-0.94,29.86,43.06,-59.26
59127,-0.79,2.01,-0.43,-0.38,0.15,-0.95,28.66,43.51,-59.41
59157,-0.73,1.95,-0.43,-0.4,0.15,-0.95,29.56,42.31,-61.07
59188,-0.73,1.89,-0.43,-0.39,0.15,-0.95,29.56,43.06,-59.26
59219,-0.73,1.95,-0.37,-0.39,0.15,-0.93,28.06,43.36,-60.62
59249,-0.73,1.95,-0.37,-0.39,0.16,-0.95,27.01,43.36,-60.02
59280,-0.79,1.89,-0.43,-0.4,0.15,-0.94,29.11,42.61,-58.96
59314,-0.79,1.89,-0.43,-0.39,0.14,-0.95,27.76,43.36,-59.26
59345,-0.79,1.89,-0.43,-0.39,0.15,-0.93,26.86,42.16,-59.71
59375,-0.79,1.89,-0.43,-0.4,0.16,-0.93,28.21,42.46,-60.77
59418,-0.73,1.89,-0.43,-0.39,0.15,-0.95,30.01,43.96,-60.77
59448,-0.73,1.95,-0.43,-0.4,0.15,-0.94,27.01,43.36,-60.32
59479,-0.73,1.95,-0.49,-0.39,0.15,-0.94,28.21,42.91,-59.41
59509,-0.79,1.95,-0.49,-0.39,0.15,-0.96,26.86,43.51,-61.22
59553,-0.79,1.89,-0.49,-0.38,0.15,-0.95,27.16,44.71,-61.22
59583,-0.85,1.95,-0.49,-0.4,0.14,-0.95,28.81,43.81,-60.32
59614,-0.79,1.95,-0.37,-0.39,0.15,-0.94,28.21,42.91,-60.47
59644,-0.79,1.89,-0.43,-0.38,0.14,-0.94,28.21,43.21,-59.71
59675,-0.79,1.95,-0.43,-0.39,0.14,-0.95,27.76,43.06,-60.02
59705,-0.79,1.95,-0.43,-0.39,0.15,-0.95,27.91,42.16,-60.47
59736,-0.73,2.01,-0.49,-0.39,0.15,-0.94,28.51,43.06,-62.12
59766,-0.73,1.89,-0.43,-0.38,0.15,-0.95,28.21,42.16,-59.71
59800,-0.79,1.89,-0.43,-0.39,0.15,-0.94,28.21,43.21,-59.11
59831,-0.85,1.95,-0.43,-0.39,0.15,-0.94,28.81,43.06,-62.12
59862,-0.79,1.89,-0.37,-0.38,0.15,-0.92,27.91,43.21,-60.77
59892,-0.73,1.89,-0.37,-0.39,0.15,-0.95,27.31,43.36,-60.02
59923,-0.79,1.89,-0.37,-0.39,0.15,-0.94,27.01,44.11,-59.56
59954,-0.85,1.83,-0.43,-0.39,0.15,-0.94,28.21,43.96,-59.71
59984,-0.85,1.89,-0.37,-0.39,0.16,-0.93,28.51,43.81,-61.07
60018,-0.79,1.95,-0.37,-0.38,0.15,-0.94,26.86,43.96,-59.71
60049,-0.79,1.95,-0.43,-0.39,0.14,-0.95,27.61,43.51,-61.22
60079,-0.79,1.95,-0.43,-0.4,0.16,-0.94,26.71,43.81,-61.07
60110,-0.73,1.95,-0.43,-0.39,0.15,-0.95,28.81,43.81,-59.26
60141,-0.73,1.89,-0.43,-0.39,0.15,-0.94,28.21,41.71,-62.27
60171,-0.79,1.95,-0.43,-0.38,0.15,-0.94,28.66,43.21,-60.17
60202,-0.79,2.01,-0.43,-0.39,0.15,-0.94,28.21,45.01,-59.71
60233,-0.79,1.95,-0.49,-0.38,0.15,-0.94,28.51,43.36,-60.32
60267,-0.79,1.89,-0.43,-0.38,0.15,-0.93,27.01,42.01,-60.02
60297,-0.79,1.95,-0.43,-0.39,0.15,-0.95,28.66,43.96,-60.17
60328,-0.79,1.95,-0.37,-0.39,0.16,-0.95,27.31,44.11,-60.02
60359,-0.79,1.89,-0.37,-0.38,0.14,-0.94,28.66,43.21,-59.41
60389,-0.79,1.89,-0.43,-0.38,0.15,-0.94,28.06,44.11,-59.56
60420,-0.79,1.95,-0.37,-0.38,0.14,-0.93,28.66,43.51,-60.47
60451,-0.79,1.95,-0.43,-0.39,0.15,-0.95,28.96,42.91,-60.17
60485,-0.79,1.95,-0.43,-0.38,0.16,-0.94,27.91,43.96,-59.41
60515,-0.85,1.95,-0.43,-0.39,0.15,-0.93,26.41,44.26,-62.27
60546,-0.79,1.95,-0.43,-0.39,0.14,-0.94,27.76,44.86,-60.62
60576,-0.85,1.89,-0.43,-0.39,0.15,-0.94,27.91,42.91,-60.17
60607,-0.79,1.89,-0.43,-0.38,0.16,-0.95,27.31,43.36,-60.02
60638,-0.79,1.89,-0.37,-0.38,0.15,-0.95,27.16,43.51,-61.52
60668,-0.79,1.95,-0.37,-0.4,0.15,-0.94,27.61,43.21,-60.17
60699,-0.73,1.89,-0.43,-0.39,0.15,-0.95,28.51,43.36,-61.07
60733,-0.79,1.95,-0.43,-0.39,0.15,-0.93,28.81,42.46,-59.71
60764,-0.73,1.89,-0.43,-0.38,0.15,-0.94,28.81,44.41,-60.32
60801,-0.79,1.83,-0.37,-0.38,0.15,-0.94,28.06,43.06,-61.07
60831,-0.73,1.95,-0.37,-0.39,0.14,-0.94,28.21,43.96,-61.22
60862,-0.73,1.95,-0.43,-0.39,0.16,-0.94,27.91,42.91,-61.52
60893,-0.79,1.89,-0.43,-0.39,0.16,-0.94,28.66,43.21,-60.77
60923,-0.79,1.89,-0.43,-0.39,0.15,-0.93,28.06,43.36,-58.96
60957,-0.79,1.89,-0.43,-0.39,0.16,-0.93,28.66,44.26,-59.41
60988,-0.79,1.89,-0.43,-0.38,0.15,-0.94,27.16,44.71,-59.11
61019,-0.73,1.95,-0.43,-0.39,0.15,-0.94,27.61,43.51,-60.47
61049,-0.79,1.89,-0.43,-0.39,0.15,-0.94,28.06,44.41,-58.51
61080,-0.79,1.89,-0.43,-0.39,0.15,-0.96,28.06,43.06,-60.32
61111,-0.79,1.89,-0.49,-0.39,0.15,-0.93,29.71,43.21,-58.66
61141,-0.79,1.89,-0.43,-0.39,0.16,-0.95,27.61,43.96,-59.71
61172,-0.79,1.89,-0.43,-0.39,0.15,-0.93,27.61,42.91,-60.77
61206,-0.79,1.95,-0.37,-0.38,0.15,-0.94,28.66,43.51,-60.47
61237,-0.79,1.95,-0.43,-0.39,0.15,-0.94,27.61,42.46,-59.71
61291,-0.73,1.89,-0.43,-0.39,0.15,-0.95,28.21,41.71,-59.11
61321,-0.79,1.89,-0.43,-0.38,0.15,-0.94,28.21,42.46,-58.66
61352,-0.79,1.89,-0.43,-0.38,0.14,-0.94,28.06,44.86,-58.51
61383,-0.73,1.95,-0.43,-0.39,0.15,-0.94,28.96,43.21,-61.22
61413,-0.73,1.89,-0.43,-0.39,0.15,-0.95,27.31,43.81,-60.62
61448,-0.73,1.95,-0.43,-0.39,0.14,-0.93,27.31,43.36,-58.96
61478,-0.73,1.95,-0.43,-0.39,0.14,-0.93,28.66,44.71,-59.11
61509,-0.73,1.89,-0.37,-0.39,0.16,-0.94,28.66,43.96,-60.17
61540,-0.73,1.83,-0.43,-0.39,0.15,-0.95,28.96,43.21,-59.41
61570,-0.73,1.16,-0.49,-0.39,0.16,-0.94,28.96,43.96,-60.47
61601,-0.73,1.65,-0.49,-0.39,0.15,-0.93,26.71,42.61,-61.37
61632,-0.73,2.13,-0.37,-0.38,0.15,-0.94,28.81,44.11,-60.62
61662,-0.79,1.95,-0.37,-0.39,0.15,-0.95,27.16,42.91,-61.52
61696,-0.73,2.07,-0.43,-0.39,0.15,-0.92,28.06,43.81,-60.02
61727,-0.73,2.2,-0.37,-0.38,0.15,-0.94,27.16,43.51,-60.17
61757,-0.73,2.32,-0.37,-0.39,0.15,-0.94,28.96,43.51,-60.17
61788,-0.73,2.07,-0.37,-0.39,0.15,-0.95,27.61,43.21,-59.41
61819,-0.85,2.93,-0.24,-0.39,0.15,-0.95,27.61,43.21,-60.47
61849,-0.79,2.93,-0.3,-0.37,0.14,-0.96,27.01,42.61,-60.02
61880,-0.73,2.32,-0.37,-0.39,0.15,-0.94,26.41,43.21,-59.71
61914,-0.73,1.52,-0.37,-0.39,0.14,-0.94,27.76,43.81,-60.62
61945,-0.73,2.26,-0.3,-0.39,0.15,-0.95,28.66,42.46,-61.22
61976,-0.85,2.2,-0.37,-0.38,0.15,-0.94,27.16,43.51,-60.47
62006,-0.85,1.65,-0.43,-0.39,0.15,-0.94,28.06,43.06,-58.96
62037,-0.79,1.83,-0.37,-0.39,0.14,-0.93,27.76,42.31,-60.62
62068,-0.79,1.65,-0.43,-0.39,0.14,-0.94,29.41,42.91,-60.47
62098,-0.79,2.01,-0.43,-0.38,0.16,-0.94,27.76,44.11,-60.62
62129,-0.73,1.77,-0.49,-0.4,0.14,-0.94,27.91,43.51,-61.52
62163,-0.79,1.71,-0.43,-0.38,0.15,-0.94,28.81,43.06,-60.62
62193,-0.79,1.89,-0.55,-0.39,0.15,-0.93,28.21,43.21,-60.77
62224,-0.79,1.83,-0.43,-0.39,0.15,-0.93,28.96,42.46,-60.77
62255,-0.79,1.95,-0.43,-0.38,0.14,-0.95,29.86,42.01,-61.07
62285,-0.79,1.95,-0.37,-0.39,0.15,-0.94,28.96,43.21,-59.71
62316,-0.79,1.83,-0.43,-0.39,0.15,-0.93,27.91,43.96,-59.11
62347,-0.73,1.89,-0.37,-0.39,0.14,-0.94,27.76,43.06,-60.32
62381,-0.79,1.89,-0.43,-0.39,0.16,-0.95,27.61,44.26,-61.52
62411,-0.73,1.95,-0.37,-0.39,0.15,-0.94,28.66,42.91,-60.47
62442,-0.73,1.95,-0.37,-0.39,0.14,-0.93,28.21,42.91,-60.17
62473,-0.79,2.01,-0.43,-0.38,0.15,-0.95,28.21,43.51,-60.77
62503,-0.73,1.83,-0.37,-0.39,0.15,-0.92,28.21,43.21,-61.22
62534,-0.79,1.89,-0.37,-0.39,0.15,-0.94,28.66,43.51,-59.41
62565,-0.73,1.95,-0.43,-0.39,0.14,-0.93,29.71,43.21,-61.52
62595,-0.67,1.95,-0.43,-0.39,0.15,-0.94,28.21,44.26,-59.71
62629,-0.73,1.89,-0.49,-0.39,0.15,-0.93,28.81,44.41,-59.56
62660,-0.79,1.95,-0.43,-0.38,0.15,-0.96,27.76,43.06,-61.37
62691,-0.79,1.89,-0.43,-0.4,0.16,-0.94,27.01,43.81,-60.02
62721,-0.79,1.89,-0.43,-0.39,0.15,-0.94,28.81,44.41,-60.02
62752,-0.79,1.95,-0.37,-0.39,0.15,-0.94,28.51,43.81,-59.56
62783,-0.79,1.89,-0.37,-0.39,0.15,-0.93,27.76,43.06,-60.02
62813,-0.73,1.89,-0.43,-0.39,0.15,-0.94,27.16,43.21,-59.71
62844,-0.79,2.01,-0.43,-0.39,0.15,-0.94,28.21,43.51,-61.22
62872,-0.73,1.83,-0.37,-0.4,0.15,-0.94,27.76,43.81,-60.02
62903,-0.73,1.95,-0.43,-0.39,0.15,-0.94,28.51,42.31,-61.37
62934,-0.73,1.95,-0.43,-0.39,0.15,-0.95,27.76,43.06,-60.32
62964,-0.73,1.95,-0.43,-0.39,0.14,-0.94,26.86,42.91,-60.47
62995,-0.73,1.95,-0.43,-0.39,0.15,-0.94,28.06,42.61,-60.32
63025,-0.73,1.95,-0.43,-0.39,0.15,-0.95,28.81,44.41,-59.56
63056,-0.79,1.89,-0.43,-0.39,0.14,-0.94,27.91,43.51,-61.82
63090,-0.73,1.89,-0.43,-0.39,0.15,-0.93,27.76,43.06,-60.62
63121,-0.73,2.01,-0.37,-0.38,0.15,-0.94,28.21,43.51,-59.11
63158,-0.79,1.95,-0.37,-0.39,0.15,-0.94,29.71,42.46,-60.47
63238,-0.73,1.95,-0.43,-0.4,0.15,-0.95,27.76,44.11,-61.37
63269,-0.79,1.95,-0.43,-0.39,0.15,-0.94,27.31,44.86,-58.51
63299,-0.79,1.89,-0.43,-0.38,0.14,-0.95,28.96,43.51,-60.47
63330,-0.73,1.89,-0.37,-0.39,0.16,-0.94,28.21,44.71,-60.77
63361,-0.79,1.95,-0.49,-0.39,0.14,-0.94,26.86,42.91,-60.47
63395,-0.73,1.95,-0.43,-0.39,0.15,-0.93,27.16,44.26,-60.47
63425,-0.79,1.89,-0.49,-0.39,0.15,-0.94,27.31,43.36,-61.37
63456,-0.79,1.95,-0.43,-0.38,0.15,-0.94,28.66,43.21,-60.17
63486,-0.73,1.83,-0.37,-0.38,0.15,-0.95,29.11,43.36,-58.51
63517,-0.79,1.95,-0.49,-0.39,0.15,-0.94,29.11,44.11,-60.02
63548,-0.79,1.89,-0.37,-0.39,0.15,-0.95,28.81,43.36,-61.07
63578,-0.79,1.95,-0.43,-0.39,0.14,-0.94,27.31,43.06,-60.02
63612,-0.79,1.89,-0.43,-0.39,0.14,-0.93,28.81,44.86,-59.26
63643,-0.79,1.89,-0.43,-0.4,0.14,-0.93,28.51,44.11,-60.32
63674,-0.79,1.89,-0.43,-0.39,0.15,-0.94,26.41,43.51,-61.22
63704,-0.85,1.89,-0.49,-0.39,0.14,-0.93,28.06,43.81,-58.51
63735,-0.79,1.95,-0.43,-0.39,0.16,-0.94,27.76,43.36,-58.96
63766,-0.79,1.89,-0.43,-0.39,0.16,-0.94,28.96,44.71,-60.47
63796,-0.73,1.89,-0.43,-0.39,0.15,-0.93,29.86,44.86,-60.62
63827,-0.73,1.89,-0.43,-0.4,0.15,-0.94,27.61,45.01,-59.71
63861,-0.73,1.89,-0.3,-0.39,0.16,-0.94,26.86,42.16,-60.17
63891,-0.73,1.95,-0.43,-0.39,0.15,-0.95,27.91,43.51,-59.41
63922,-0.79,1.89,-0.49,-0.39,0.15,-0.93,28.81,43.06,-60.02
63953,-0.85,1.95,-0.43,-0.4,0.15,-0.95,27.91,43.96,-59.71
63983,-0.79,1.89,-0.43,-0.4,0.15,-0.95,29.71,43.21,-60.17
64014,-0.79,1.95,-0.37,-0.39,0.14,-0.94,28.51,43.06,-61.37
64044,-0.79,1.83,-0.43,-0.39,0.15,-0.95,27.76,42.31,-61.37
64078,-0.79,1.95,-0.43,-0.39,0.15,-0.95,26.71,43.81,-61.07
64109,-0.79,1.89,-0.43,-0.39,0.15,-0.95,27.31,43.81,-60.32
64140,-0.73,1.89,-0.49,-0.39,0.15,-0.94,28.66,43.51,-61.82
64170,-0.79,1.89,-0.43,-0.39,0.15,-0.94,28.66,43.96,-59.41
64201,-0.79,2.01,-0.37,-0.39,0.15,-0.93,28.51,44.41,-60.02
64232,-0.79,1.89,-0.37,-0.39,0.14,-0.93,28.21,43.51,-59.41
64262,-0.79,1.89,-0.43,-0.4,0.14,-0.95,28.81,43.36,-60.02
64293,-0.79,1.95,-0.43,-0.4,0.15,-0.95,28.06,43.81,-59.56
64327,-0.79,1.89,-0.43,-0.39,0.15,-0.94,27.91,43.51,-59.71
64357,-0.79,1.95,-0.43,-0.39,0.15,-0.93,28.21,44.26,-60.77
64388,-0.73,1.89,-0.49,-0.39,0.15,-0.96,29.41,42.91,-60.17
64419,-0.73,1.89,-0.43,-0.38,0.15,-0.93,28.51,44.11,-59.56
64449,-0.79,1.95,-0.43,-0.39,0.15,-0.95,26.71,44.11,-57.91
64480,-0.79,1.95,-0.43,-0.38,0.15,-0.94,27.61,43.51,-59.71
64511,-0.73,1.83,-0.37,-0.39,0.15,-0.93,27.16,43.21,-59.11
64545,-0.79,1.95,-0.37,-0.39,0.15,-0.94,29.41,43.21,-59.71
64575,-0.73,1.95,-0.3,-0.38,0.14,-0.94,26.86,42.91,-60.17
64606,-0.79,1.89,-0.37,-0.39,0.15,-0.93,26.86,43.51,-59.41
64636,-0.79,1.89,-0.43,-0.39,0.15,-0.94,28.96,43.96,-61.22
64667,-0.73,1.89,-0.43,-0.38,0.15,-0.94,28.21,42.16,-60.77
64698,-0.79,1.89,-0.37,-0.4,0.14,-0.93,29.56,43.81,-60.32
64735,-0.73,1.89,-0.43,-0.38,0.14,-0.94,29.41,42.91,-58.36
64765,-0.79,1.89,-0.37,-0.38,0.15,-0.93,28.21,42.91,-60.17
64800,-0.79,1.89,-0.37,-0.39,0.14,-0.94,27.01,42.61,-61.07
64830,-0.73,1.95,-0.37,-0.38,0.15,-0.95,27.91,43.51,-60.77
64861,-0.79,1.89,-0.49,-0.4,0.15,-0.95,28.66,43.51,-61.22
64891,-0.73,1.95,-0.49,-0.39,0.15,-0.94,27.91,42.46,-60.17
64922,-0.79,1.89,-0.43,-0.38,0.15,-0.95,28.51,44.11,-60.62
64953,-0.79,1.89,-0.49,-0.39,0.15,-0.94,27.76,43.36,-59.56
65004,-0.73,1.95,-0.43,-0.39,0.15,-0.94,28.96,43.21,-59.71
65038,-0.73,1.89,-0.37,-0.39,0.15,-0.94,27.91,42.91,-60.47
65068,-0.73,1.89,-0.49,-0.39,0.16,-0.94,27.91,43.96,-60.17
65099,-0.79,1.89,-0.37,-0.39,0.15,-0.95,28.06,43.36,-58.96
65130,-0.79,1.95,-0.43,-0.38,0.15,-0.94,28.06,43.06,-60.32
65160,-0.73,1.95,-0.37,-0.39,0.15,-0.95,28.81,42.61,-61.37
65191,-0.79,1.95,-0.43,-0.39,0.15,-0.95,28.21,43.21,-58.66
65222,-0.79,1.89,-0.43,-0.39,0.15,-0.93,28.66,42.46,-60.47
65252,-0.73,1.89,-0.43,-0.39,0.15,-0.94,29.86,43.36,-60.62
65286,-0.85,1.89,-0.43,-0.4,0.15,-0.95,27.61,43.51,-59.41
65317,-0.79,1.95,-0.37,-0.39,0.15,-0.93,27.61,42.91,-59.71
65348,-0.73,1.89,-0.43,-0.39,0.15,-0.95,29.41,42.91,-61.22
65378,-0.73,1.89,-0.37,-0.39,0.15,-0.94,28.81,44.11,-60.02
65409,-0.79,1.89,-0.43,-0.39,0.14,-0.93,28.81,42.61,-60.32
65439,-0.79,1.89,-0.43,-0.39,0.15,-0.93,28.66,43.51,-60.77
65470,-0.73,1.89,-0.43,-0.39,0.15,-0.94,29.11,42.61,-60.02
65504,-0.73,1.95,-0.43,-0.39,0.15,-0.94,29.71,42.16,-58.36
65535,-0.73,1.89,-0.49,-0.39,0.15,-0.94,28.66,43.21,-60.17
65565,-0.85,1.95,-0.49,-0.38,0.15,-0.94,28.51,42.61,-60.32
65596,-0.73,1.89,-0.49,-0.39,0.14,-0.95,28.51,43.06,-60.32
65626,-0.79,1.89,-0.43,-0.39,0.16,-0.93,28.21,43.96,-59.41
65657,-0.73,1.95,-0.37,-0.38,0.15,-0.94,27.16,43.51,-61.22
65688,-0.73,1.89,-0.43,-0.39,0.15,-0.92,27.76,44.11,-60.62
65718,-0.73,1.83,-0.43,-0.38,0.15,-0.94,28.06,42.31,-60.02
65752,-0.79,1.95,-0.43,-0.39,0.15,-0.93,28.96,42.91,-60.77
65783,-0.79,1.89,-0.43,-0.39,0.15,-0.93,27.61,41.41,-60.47
65814,-0.79,1.89,-0.43,-0.39,0.15,-0.93,28.96,43.21,-59.71
65844,-0.79,1.89,-0.49,-0.39,0.15,-0.93,26.86,44.71,-59.71
65875,-0.79,1.95,-0.43,-0.39,0.14,-0.95,28.81,42.31,-61.07
65906,-0.79,1.89,-0.37,-0.4,0.15,-0.95,29.56,43.06,-60.02
65936,-0.85,1.89,-0.3,-0.39,0.14,-0.94,30.61,43.36,-61.07
65970,-0.73,1.95,-0.37,-0.39,0.14,-0.94,27.91,42.91,-60.17
66001,-0.73,1.89,-0.37,-0.38,0.15,-0.94,28.51,43.06,-61.07
66031,-0.73,1.95,-0.43,-0.39,0.15,-0.94,27.91,43.21,-60.17
66062,-0.73,1.95,-0.49,-0.39,0.15,-0.96,28.06,43.36,-60.02
66093,-0.79,1.95,-0.49,-0.38,0.15,-0.94,27.16,43.51,-60.17
66123,-0.79,1.95,-0.43,-0.38,0.15,-0.94,26.86,43.21,-59.11
66154,-0.73,1.89,-0.43,-0.39,0.14,-0.95,27.31,42.61,-61.37
66185,-0.79,1.89,-0.3,-0.39,0.15,-0.94,27.31,43.81,-60.02
66219,-0.79,1.95,-0.37,-0.39,0.15,-0.94,27.31,43.36,-61.37
66249,-0.79,1.83,-0.43,-0.39,0.15,-0.94,29.41,43.51,-59.11
66280,-0.79,1.89,-0.49,-0.4,0.14,-0.93,28.96,43.51,-60.17
66310,-0.79,1.95,-0.37,-0.39,0.15,-0.94,28.06,43.81,-59.26
66341,-0.79,1.89,-0.49,-0.39,0.15,-0.93,26.41,43.96,-59.71
66372,-0.79,1.95,-0.37,-0.39,0.16,-0.94,27.01,43.81,-58.96
66402,-0.79,1.89,-0.43,-0.39,0.14,-0.95,28.66,44.26,-59.71
66436,-0.73,1.89,-0.49,-0.39,0.15,-0.94,28.21,42.16,-60.17
66467,-0.73,1.95,-0.37,-0.39,0.15,-0.93,27.91,43.96,-60.77
66498,-0.73,1.89,-0.37,-0.39,0.15,-0.94,29.56,43.36,-60.62
66528,-0.79,1.95,-0.37,-0.38,0.15,-0.94,28.81,43.81,-60.32
66559,-0.79,1.89,-0.43,-0.4,0.15,-0.93,29.41,42.16,-61.22
66590,-0.79,1.95,-0.37,-0.38,0.15,-0.96,28.06,42.31,-60.32
66620,-0.85,1.89,-0.43,-0.39,0.15,-0.94,29.11,43.81,-60.32
66651,-0.79,1.95,-0.37,-0.39,0.15,-0.96,28.96,42.91,-59.71
66685,-0.79,2.01,-0.43,-0.39,0.14,-0.95,27.76,43.36,-60.02
66715,-0.79,1.89,-0.43,-0.39,0.15,-0.94,27.76,43.36,-58.51
66746,-0.79,1.89,-0.43,-0.39,0.15,-0.94,27.91,42.91,-60.77
66777,-0.79,1.89,-0.37,-0.38,0.14,-0.93,27.31,43.81,-59.56
66807,-0.79,1.89,-0.43,-0.38,0.15,-0.95,28.06,43.81,-60.02
66838,-0.79,1.89,-0.43,-0.39,0.15,-0.94,27.76,43.36,-59.56
66875,-0.73,1.83,-0.43,-0.39,0.15,-0.94,28.06,43.36,-59.56
66905,-0.73,2.01,-0.43,-0.39,0.16,-0.93,28.06,44.41,-59.56
66934,-0.73,1.89,-0.37,-0.39,0.15,-0.94,28.96,43.21,-60.47
66964,-0.79,1.89,-0.43,-0.39,0.15,-0.94,28.06,42.61,-60.32
66995,-0.85,1.83,-0.37,-0.39,0.15,-0.94,27.76,44.11,-60.32
67026,-0.73,1.89,-0.43,-0.38,0.14,-0.94,27.61,43.96,-60.47
67056,-0.85,1.95,-0.49,-0.39,0.15,-0.94,27.76,42.61,-60.32
67087,-0.73,1.95,-0.43,-0.39,0.15,-0.95,27.31,42.31,-60.32
67117,-0.79,1.95,-0.49,-0.38,0.16,-0.95,27.16,42.91,-60.17
67151,-0.73,1.95,-0.49,-0.39,0.14,-0.95,28.06,43.36,-61.67
67182,-0.73,1.89,-0.43,-0.4,0.15,-0.95,27.61,42.46,-58.66
67213,-0.73,1.95,-0.43,-0.38,0.15,-0.94,28.81,44.86,-60.32
67243,-0.79,1.89,-0.37,-0.38,0.16,-0.95,28.81,44.11,-58.51
67274,-0.79,1.95,-0.37,-0.4,0.16,-0.94,28.06,44.11,-59.56
67305,-0.79,1.89,-0.37,-0.39,0.14,-0.94,27.91,43.21,-61.22
67335,-0.79,1.89,-0.43,-0.39,0.14,-0.94,28.21,43.51,-59.71
67366,-0.79,1.95,-0.37,-0.38,0.15,-0.94,28.06,42.31,-60.32
67400,-0.79,1.89,-0.43,-0.39,0.16,-0.93,29.41,44.26,-59.41
67431,-0.79,1.89,-0.43,-0.4,0.15,-0.94,28.21,43.51,-59.11
67461,-0.79,1.83,-0.43,-0.39,0.15,-0.94,28.66,42.91,-60.77
67492,-0.79,1.89,-0.43,-0.38,0.15,-0.94,29.41,43.21,-60.17
67523,-0.79,1.89,-0.49,-0.39,0.15,-0.94,27.76,43.81,-60.32
67553,-0.79,1.95,-0.3,-0.39,0.15,-0.95,28.51,44.11,-60.32
67584,-0.79,1.89,-0.43,-0.38,0.14,-0.94,27.61,43.51,-60.47
67618,-0.73,1.95,-0.43,-0.38,0.16,-0.96,27.16,43.96,-60.17
67648,-0.67,1.95,-0.37,-0.39,0.15,-0.94,28.96,44.71,-60.17
67679,-0.73,2.01,-0.43,-0.38,0.15,-0.93,28.66,43.51,-59.71
67710,-0.79,1.89,-0.49,-0.38,0.15,-0.93,28.06,43.36,-60.32
67740,-0.79,1.95,-0.37,-0.38,0.15,-0.95,28.06,42.61,-61.07
67771,-0.73,1.89,-0.43,-0.39,0.15,-0.95,29.11,42.01,-61.07
67802,-0.79,1.89,-0.43,-0.39,0.15,-0.94,28.21,43.21,-60.17
67832,-0.73,1.89,-0.37,-0.39,0.15,-0.95,30.46,44.26,-60.17
67866,-0.79,1.95,-0.37,-0.38,0.15,-0.94,27.01,42.61,-60.02
67897,-0.73,1.89,-0.43,-0.39,0.15,-0.93,27.01,43.81,-60.62
67927,-0.85,1.95,-0.37,-0.4,0.15,-0.94,28.66,43.51,-59.41
67958,-0.79,1.95,-0.3,-0.38,0.16,-0.94,29.11,42.61,-60.02
67989,-0.73,1.95,-0.37,-0.39,0.15,-0.97,28.66,44.26,-59.71
68019,-0.79,1.89,-0.43,-0.39,0.16,-0.93,28.21,43.21,-60.17
68050,-0.79,1.95,-0.43,-0.39,0.15,-0.95,27.76,42.31,-60.02
68084,-0.85,1.95,-0.49,-0.38,0.15,-0.95,29.71,43.51,-59.41
68115,-0.79,1.89,-0.49,-0.39,0.16,-0.94,28.21,43.51,-59.11
68145,-0.73,1.89,-0.43,-0.39,0.15,-0.95,29.71,42.91,-59.71
68176,-0.79,1.89,-0.43,-0.39,0.15,-0.94,27.16,43.21,-58.66
68206,-0.79,1.95,-0.49,-0.39,0.16,-0.93,27.91,44.71,-60.77
68237,-0.79,1.89,-0.43,-0.39,0.16,-0.94,26.41,42.46,-60.47
68268,-0.73,1.83,-0.43,-0.39,0.15,-0.95,29.11,43.36,-60.02
68298,-0.79,1.95,-0.49,-0.39,0.15,-0.93,27.76,43.81,-60.62
68332,-0.79,1.89,-0.43,-0.39,0.15,-0.94,26.71,42.31,-61.07
68363,-0.73,1.95,-0.43,-0.38,0.15,-0.96,30.01,42.46,-61.52
68394,-0.79,1.95,-0.43,-0.39,0.15,-0.95,28.81,44.11,-60.02
68424,-0.79,1.89,-0.37,-0.39,0.15,-0.94,27.76,43.81,-60.02
68455,-0.79,1.95,-0.37,-0.38,0.15,-0.95,29.56,44.41,-60.32
68485,-0.73,1.95,-0.43,-0.38,0.15,-0.94,27.61,44.26,-60.77
68516,-0.79,1.95,-0.43,-0.38,0.14,-0.93,28.66,44.26,-60.17
68550,-0.73,1.89,-0.43,-0.38,0.14,-0.93,28.81,42.61,-60.02
68581,-0.79,1.89,-0.43,-0.4,0.14,-0.94,28.96,44.26,-61.22
68611,-0.79,1.83,-0.3,-0.39,0.15,-0.95,28.96,43.51,-61.52
68649,-0.73,1.95,-0.43,-0.39,0.15,-0.94,28.21,42.46,-60.77
68679,-0.73,1.95,-0.37,-0.39,0.16,-0.94,28.06,43.81,-59.56
68710,-0.79,1.89,-0.43,-0.39,0.15,-0.94,27.76,42.61,-60.62
68761,-0.79,1.95,-0.43,-0.39,0.14,-0.94,26.71,43.36,-58.96
68792,-0.73,1.95,-0.37,-0.39,0.15,-0.95,27.76,43.36,-61.67
68826,-0.79,1.89,-0.43,-0.39,0.16,-0.94,28.51,43.06,-60.32
68856,-0.73,1.89,-0.43,-0.39,0.15,-0.94,28.66,43.21,-59.11
68887,-0.73,1.89,-0.43,-0.39,0.14,-0.94,28.21,44.26,-58.66
68918,-0.79,1.95,-0.43,-0.38,0.14,-0.93,28.06,43.81,-60.02
68948,-0.85,1.95,-0.37,-0.39,0.16,-0.95,26.86,43.96,-60.47
68979,-0.85,1.95,-0.43,-0.4,0.15,-0.95,27.76,44.11,-59.56
69010,-0.79,1.89,-0.43,-0.39,0.15,-0.95,27.61,42.91,-59.41
69044,-0.79,1.83,-0.37,-0.39,0.15,-0.96,28.96,43.51,-60.17
69074,-0.79,1.89,-0.43,-0.39,0.15,-0.93,27.91,42.91,-59.41
69105,-0.79,1.89,-0.43,-0.38,0.15,-0.93,28.51,43.81,-60.32
69135,-0.79,1.89,-0.49,-0.39,0.15,-0.94,28.06,43.81,-58.96
69166,-0.79,1.95,-0.49,-0.39,0.15,-0.95,27.31,42.61,-60.62
69197,-0.79,1.83,-0.43,-0.39,0.15,-0.95,28.21,43.21,-58.66
69227,-0.79,1.95,-0.37,-0.38,0.15,-0.93,28.51,43.36,-59.56
69258,-0.79,1.95,-0.43,-0.39,0.15,-0.95,27.91,42.16,-58.36
69292,-0.73,1.83,-0.43,-0.39,0.15,-0.94,27.76,44.41,-60.32
69323,-0.73,1.89,-0.37,-0.38,0.14,-0.94,28.96,44.71,-60.47
69353,-0.79,1.83,-0.43,-0.39,0.15,-0.95,27.91,43.96,-59.41
69384,-0.73,1.95,-0.37,-0.39,0.16,-0.93,29.41,41.41,-61.22
69415,-0.73,1.89,-0.43,-0.38,0.16,-0.93,27.91,41.71,-59.41
69445,-0.73,1.89,-0.37,-0.39,0.14,-0.93,28.21,42.16,-60.17
69476,-0.73,1.95,-0.43,-0.39,0.15,-0.94,28.96,43.21,-60.17
69510,-0.73,1.89,-0.49,-0.39,0.15,-0.94,28.51,43.81,-58.51
69541,-0.73,1.89,-0.49,-0.39,0.15,-0.95,29.11,44.86,-60.32
69571,-0.79,1.95,-0.43,-0.38,0.15,-0.94,28.21,43.96,-59.71
69602,-0.85,1.95,-0.37,-0.39,0.15,-0.94,26.26,43.06,-59.56
69632,-0.73,1.89,-0.43,-0.39,0.15,-0.95,27.16,43.96,-60.77
69663,-0.79,1.89,-0.43,-0.38,0.15,-0.93,29.56,44.41,-59.26
69694,-0.79,1.89,-0.43,-0.39,0.15,-0.94,29.71,43.51,-59.71
69724,-0.79,1.89,-0.37,-0.39,0.16,-0.95,29.11,43.06,-61.07
69758,-0.79,1.95,-0.43,-0.38,0.15,-0.94,27.16,43.21,-60.17
69789,-0.79,1.89,-0.43,-0.39,0.15,-0.94,28.81,44.11,-60.32
69820,-0.79,1.89,-0.37,-0.4,0.15,-0.94,27.76,45.16,-58.96
69850,-0.79,1.89,-0.43,-0.39,0.14,-0.94,28.51,43.36,-60.02
69881,-0.73,1.89,-0.43,-0.38,0.15,-0.95,28.51,42.31,-60.62
69911,-0.85,1.89,-0.37,-0.39,0.15,-0.94,28.21,43.51,-60.17
69942,-0.79,1.95,-0.37,-0.38,0.14,-0.93,27.61,43.51,-60.47
69976,-0.79,1.83,-0.37,-0.39,0.15,-0.95,27.01,43.81,-60.32
70007,-0.85,1.89,-0.49,-0.39,0.15,-0.95,29.41,43.96,-59.41
70037,-0.79,1.95,-0.43,-0.39,0.15,-0.94,27.76,43.06,-60.62
70068,-0.79,1.95,-0.37,-0.39,0.15,-0.94,28.81,43.81,-60.02
70098,-0.73,1.89,-0.43,-0.39,0.16,-0.94,28.06,44.41,-60.62
70129,-0.73,1.89,-0.43,-0.38,0.15,-0.94,26.41,42.16,-61.22
70160,-0.73,1.95,-0.37,-0.39,0.15,-0.94,27.61,44.71,-61.22
70190,-0.85,1.95,-0.37,-0.39,0.15,-0.95,27.91,44.71,-59.41
70224,-0.79,2.01,-0.43,-0.39,0.15,-0.94,27.76,44.41,-58.96
70255,-0.73,1.89,-0.43,-0.39,0.14,-0.93,29.11,43.06,-60.32
70286,-0.79,1.89,-0.37,-0.39,0.15,-0.94,28.51,43.36,-60.32
70316,-0.73,1.89,-0.43,-0.39,0.15,-0.94,27.61,43.96,-61.52
70347,-0.79,1.89,-0.49,-0.39,0.14,-0.94,27.91,42.46,-60.77
70377,-0.79,1.95,-0.43,-0.38,0.15,-0.94,27.31,42.01,-58.96
70408,-0.73,1.95,-0.43,-0.39,0.14,-0.93,26.11,43.96,-59.71
70442,-0.79,1.89,-0.37,-0.38,0.14,-0.94,27.01,42.61,-61.37
70473,-0.73,1.89,-0.43,-0.39,0.15,-0.94,27.31,43.81,-59.26
70503,-0.67,1.95,-0.37,-0.39,0.15,-0.94,28.21,44.71,-60.17
70534,-0.79,1.89,-0.37,-0.38,0.14,-0.94,27.01,42.01,-61.37
70565,-0.73,1.89,-0.37,-0.39,0.15,-0.96,27.16,43.21,-59.11
70595,-0.73,1.89,-0.43,-0.39,0.15,-0.94,27.91,43.21,-60.17
70639,-0.73,1.89,-0.43,-0.39,0.15,-0.96,28.81,43.81,-60.02
70669,-0.85,1.89,-0.37,-0.39,0.14,-0.95,28.06,44.41,-60.02
70703,-0.79,1.83,-0.37,-0.38,0.16,-0.94,28.06,42.61,-60.02
70734,-0.85,1.89,-0.43,-0.39,0.14,-0.93,27.01,43.06,-60.02
70765,-0.79,1.89,-0.37,-0.39,0.15,-0.94,29.11,42.01,-61.07
70795,-0.73,1.83,-0.43,-0.39,0.15,-0.94,27.76,44.11,-61.37
70826,-0.79,1.89,-0.37,-0.38,0.15,-0.95,28.96,43.51,-61.22
70856,-0.79,1.89,-0.43,-0.4,0.15,-0.95,27.91,42.16,-59.41
70887,-0.79,1.89,-0.37,-0.38,0.15,-0.94,28.81,41.56,-61.07
70918,-0.73,1.95,-0.43,-0.39,0.14,-0.94,29.11,43.36,-60.02
70946,-0.79,1.89,-0.43,-0.39,0.15,-0.95,28.21,43.51,-60.17
70977,-0.79,1.95,-0.43,-0.39,0.15,-0.94,27.76,43.81,-60.32
71008,-0.73,1.89,-0.43,-0.38,0.15,-0.93,27.61,43.21,-60.17
71038,-0.73,1.89,-0.43,-0.4,0.15,-0.93,28.51,44.41,-61.07
71069,-0.73,1.89,-0.43,-0.39,0.14,-0.94,27.76,43.36,-60.62
71099,-0.79,1.89,-0.37,-0.4,0.15,-0.95,28.21,42.46,-59.71
71130,-0.79,1.95,-0.37,-0.39,0.16,-0.95,28.21,43.51,-60.77
71164,-0.85,1.95,-0.43,-0.38,0.15,-0.93,28.06,44.11,-60.62
71195,-0.73,1.95,-0.37,-0.39,0.15,-0.94,29.11,44.41,-60.62
71225,-0.79,1.83,-0.37,-0.38,0.15,-0.94,26.41,43.51,-60.17
71256,-0.79,1.89,-0.43,-0.39,0.15,-0.93,28.96,42.91,-59.71
71287,-0.79,1.95,-0.43,-0.38,0.15,-0.94,28.06,43.81,-60.62
71317,-0.79,1.89,-0.43,-0.39,0.15,-0.95,28.66,43.51,-61.52
71348,-0.73,1.89,-0.37,-0.39,0.15,-0.94,27.76,44.11,-60.32
71379,-0.73,1.89,-0.37,-0.39,0.15,-0.95,27.61,42.46,-58.66
71413,-0.79,1.89,-0.43,-0.39,0.15,-0.94,27.16,44.71,-60.17
71443,-0.79,1.95,-0.49,-0.39,0.15,-0.94,28.81,43.81,-58.21
71474,-0.79,1.89,-0.43,-0.38,0.15,-0.96,28.51,43.36,-60.62
71504,-0.73,1.89,-0.43,-0.39,0.15,-0.94,28.51,43.36,-60.62
71535,-0.73,1.89,-0.37,-0.39,0.16,-0.94,29.71,42.46,-60.47
71566,-0.73,1.89,-0.37,-0.39,0.14,-0.95,27.61,43.96,-60.77
71596,-0.79,1.95,-0.43,-0.39,0.16,-0.94,28.21,43.51,-60.17
71630,-0.73,1.89,-0.43,-0.38,0.15,-0.94,28.81,44.11,-60.62
71661,-0.73,1.83,-0.43,-0.39,0.16,-0.94,28.81,44.11,-58.51
71692,-0.79,1.89,-0.49,-0.38,0.15,-0.94,28.81,43.06,-61.37
71722,-0.79,1.89,-0.43,-0.39,0.15,-0.93,28.81,43.81,-59.26
71753,-0.73,1.89,-0.43,-0.39,0.15,-0.95,27.16,43.96,-59.11
71783,-0.79,1.89,-0.37,-0.4,0.15,-0.94,27.91,43.51,-60.77
71814,-0.73,1.89,-0.43,-0.39,0.15,-0.95,27.91,42.46,-61.52
71845,-0.79,1.95,-0.37,-0.4,0.15,-0.94,28.66,42.46,-60.47
71879,-0.79,1.89,-0.43,-0.39,0.16,-0.94,28.21,43.21,-61.52
71909,-0.79,1.89,-0.43,-0.39,0.15,-0.96,27.31,43.36,-61.37
71940,-0.73,1.95,-0.43,-0.39,0.15,-0.94,28.06,43.81,-60.02
71971,-0.79,1.89,-0.43,-0.39,0.15,-0.94,28.51,42.31,-60.32
72001,-0.79,1.95,-0.43,-0.39,0.16,-0.95,28.06,43.06,-58.96
72032,-0.79,1.89,-0.43,-0.39,0.15,-0.94,27.91,42.46,-60.17
72062,-0.73,1.89,-0.43,-0.39,0.15,-0.94,27.16,44.26,-59.71
72096,-0.79,1.89,-0.43,-0.39,0.15,-0.94,30.31,42.31,-60.62
72127,-0.79,1.95,-0.43,-0.39,0.14,-0.94,28.66,43.96,-60.47
72158,-0.85,1.89,-0.43,-0.39,0.15,-0.94,27.76,43.06,-61.37
72188,-0.79,1.89,-0.37,-0.38,0.15,-0.95,28.96,40.96,-60.77
72219,-0.73,1.95,-0.37,-0.39,0.15,-0.94,27.31,43.36,-60.32
72250,-0.73,1.95,-0.37,-0.38,0.15,-0.95,27.16,43.51,-59.41
72280,-0.79,1.95,-0.43,-0.38,0.15,-0.93,28.81,43.36,-60.32
72311,-0.79,1.95,-0.37,-0.4,0.15,-0.94,27.91,43.21,-60.47
72345,-0.79,1.95,-0.43,-0.39,0.15,-0.93,27.31,43.36,-59.26
72376,-0.79,1.89,-0.37,-0.38,0.16,-0.94,27.76,43.06,-61.07
72406,-0.73,1.95,-0.49,-0.4,0.15,-0.94,26.71,43.06,-60.62
72437,-0.79,1.89,-0.43,-0.38,0.14,-0.94,28.51,45.61,-59.56
72467,-0.79,1.89,-0.37,-0.38,0.15,-0.95,28.21,42.91,-60.17
72498,-0.79,1.89,-0.43,-0.39,0.15,-0.93,28.51,44.86,-61.07
72556,-0.73,1.83,-0.43,-0.39,0.15,-0.95,28.66,42.91,-61.52
72590,-0.73,1.89,-0.43,-0.38,0.14,-0.95,27.91,42.46,-59.41
72620,-0.79,1.89,-0.37,-0.39,0.15,-0.95,28.21,44.26,-60.47
72651,-0.79,1.95,-0.37,-0.39,0.14,-0.95,28.81,42.01,-60.62
72682,-0.73,1.89,-0.37,-0.39,0.15,-0.95,28.06,44.11,-59.56
72712,-0.73,1.95,-0.49,-0.39,0.15,-0.94,27.01,43.81,-61.67
72743,-0.79,1.95,-0.43,-0.39,0.15,-0.95,28.06,43.81,-60.32
72774,-0.73,1.89,-0.43,-0.38,0.15,-0.94,27.61,43.21,-59.71
72804,-0.79,1.89,-0.43,-0.39,0.15,-0.93,29.11,44.86,-59.56
72838,-0.79,1.89,-0.43,-0.39,0.15,-0.93,28.21,43.96,-58.66
72869,-0.85,1.89,-0.43,-0.39,0.16,-0.94,28.51,42.31,-59.56
72900,-0.79,1.89,-0.43,-0.39,0.15,-0.94,29.11,43.36,-61.37
72930,-0.79,1.89,-0.43,-0.39,0.15,-0.94,27.01,42.31,-60.32
72961,-0.79,1.89,-0.37,-0.39,0.14,-0.94,27.91,43.21,-60.47
72992,-0.79,1.89,-0.3,-0.4,0.14,-0.94,28.21,43.96,-59.11
73022,-0.85,1.89,-0.37,-0.39,0.15,-0.94,28.96,43.51,-60.17
73056,-0.73,1.83,-0.37,-0.39,0.15,-0.95,27.91,44.26,-59.11
73087,-0.79,1.89,-0.37,-0.39,0.15,-0.93,27.61,41.71,-59.41
73118,-0.79,1.89,-0.37,-0.38,0.15,-0.94,27.91,43.96,-60.17
73148,-0.73,1.89,-0.37,-0.39,0.14,-0.94,28.96,43.21,-60.47
73179,-0.79,1.89,-0.43,-0.39,0.15,-0.94,27.61,42.46,-60.17
73209,-0.79,1.83,-0.43,-0.39,0.16,-0.95,28.21,42.91,-60.17
73240,-0.79,1.89,-0.43,-0.39,0.15,-0.94,27.76,43.36,-60.32
73271,-0.79,1.89,-0.37,-0.38,0.15,-0.96,27.16,44.26,-60.47
73305,-0.79,1.83,-0.43,-0.39,0.15,-0.93,27.76,44.86,-60.02
73335,-0.73,1.89,-0.37,-0.39,0.14,-0.94,27.91,43.21,-60.47
73366,-0.73,1.89,-0.43,-0.39,0.14,-0.94,27.01,43.81,-59.26
73397,-0.85,1.83,-0.43,-0.38,0.14,-0.94,28.66,43.21,-60.17
73427,-0.79,1.95,-0.43,-0.38,0.14,-0.95,27.61,43.96,-59.71
73458,-0.79,1.95,-0.37,-0.39,0.14,-0.95,28.06,42.31,-59.56
73489,-0.79,1.95,-0.43,-0.39,0.15,-0.94,27.61,44.26,-59.71
73523,-0.73,1.95,-0.43,-0.39,0.15,-0.94,28.81,43.06,-60.62
73553,-0.73,1.89,-0.49,-0.4,0.15,-0.94,27.91,43.51,-59.41
73584,-0.79,1.89,-0.43,-0.39,0.15,-0.95,29.71,44.71,-60.47
73615,-0.79,1.89,-0.37,-0.38,0.15,-0.95,30.01,44.26,-58.36
73645,-0.73,1.83,-0.43,-0.39,0.15,-0.95,28.66,45.01,-60.47
73676,-0.79,1.89,-0.43,-0.39,0.14,-0.94,28.81,41.56,-60.32
73707,-0.85,1.95,-0.43,-0.39,0.15,-0.93,28.66,45.01,-60.47
73737,-0.79,1.89,-0.37,-0.39,0.15,-0.95,28.66,43.96,-60.77
73771,-0.79,1.89,-0.43,-0.39,0.14,-0.95,27.91,43.21,-60.47
73802,-0.79,1.89,-0.43,-0.4,0.15,-0.94,28.06,42.01,-58.96
73833,-0.79,1.89,-0.43,-0.39,0.15,-0.93,27.61,43.21,-60.47
73863,-0.79,1.89,-0.37,-0.39,0.15,-0.94,28.21,44.71,-60.17
73894,-0.73,1.89,-0.43,-0.38,0.16,-0.93,28.06,42.31,-60.32
73924,-0.79,1.89,-0.43,-0.39,0.14,-0.95,28.81,42.01,-59.56
73955,-0.79,1.89,-0.49,-0.38,0.14,-0.93,28.06,44.11,-60.02
73989,-0.73,1.95,-0.43,-0.39,0.15,-0.93,29.71,44.71,-60.47
74020,-0.73,1.89,-0.37,-0.39,0.14,-0.95,28.21,43.21,-61.22
74050,-0.79,1.83,-0.37,-0.4,0.15,-0.94,28.81,43.81,-58.96
74081,-0.79,1.89,-0.43,-0.39,0.15,-0.94,28.06,43.81,-59.26
74112,-0.85,1.89,-0.43,-0.4,0.15,-0.93,28.51,42.31,-59.56
74142,-0.85,1.89,-0.37,-0.39,0.15,-0.94,28.81,42.31,-60.32
74173,-0.85,1.89,-0.43,-0.39,0.15,-0.95,27.01,44.86,-60.32
74204,-0.73,1.83,-0.37,-0.39,0.15,-0.93,27.61,44.26,-61.82
74238,-0.79,1.89,-0.43,-0.38,0.15,-0.95,29.11,43.06,-60.62
74268,-0.79,1.89,-0.43,-0.39,0.15,-0.95,27.76,43.36,-60.62
74299,-0.73,1.89,-0.37,-0.39,0.15,-0.94,28.06,43.06,-61.07
74329,-0.85,1.83,-0.43,-0.39,0.15,-0.94,28.06,44.11,-60.62
74360,-0.73,1.95,-0.43,-0.38,0.15,-0.94,28.06,44.11,-60.32
74391,-0.79,1.83,-0.37,-0.38,0.16,-0.94,28.06,44.86,-60.32
74433,-0.73,1.89,-0.43,-0.39,0.15,-0.94,27.31,42.31,-60.62
74467,-0.79,1.89,-0.37,-0.39,0.15,-0.95,28.06,42.31,-59.56
74498,-0.85,1.89,-0.43,-0.39,0.15,-0.93,29.41,42.46,-60.17
74528,-0.79,1.89,-0.37,-0.39,0.15,-0.94,29.11,44.11,-59.26
74559,-0.79,1.89,-0.43,-0.39,0.16,-0.95,28.66,43.51,-60.17
74589,-0.79,1.89,-0.43,-0.38,0.16,-0.94,27.76,43.36,-60.32
74620,-0.73,1.89,-0.37,-0.39,0.15,-0.95,28.51,44.41,-58.96
74650,-0.79,1.89,-0.43,-0.39,0.14,-0.94,27.31,43.06,-60.02
74681,-0.79,1.89,-0.37,-0.39,0.15,-0.95,29.11,43.81,-61.37
74724,-0.85,1.89,-0.37,-0.39,0.15,-0.95,28.51,43.36,-60.02
74755,-0.79,1.95,-0.37,-0.39,0.15,-0.93,29.41,42.91,-59.71
74785,-0.85,1.95,-0.37,-0.39,0.15,-0.93,27.76,43.36,-61.07
74816,-0.85,1.89,-0.43,-0.39,0.16,-0.93,27.91,43.96,-59.71
74846,-0.79,1.89,-0.37,-0.38,0.15,-0.94,28.21,44.71,-61.52
74877,-0.79,1.83,-0.43,-0.39,0.15,-0.95,28.66,42.91,-60.77
74907,-0.73,1.89,-0.43,-0.38,0.15,-0.95,26.26,43.81,-59.56
74938,-0.73,1.83,-0.37,-0.39,0.16,-0.94,27.91,44.71,-59.41
74966,-0.85,1.89,-0.37,-0.39,0.15,-0.95,28.21,43.21,-60.77
74997,-0.79,1.95,-0.43,-0.4,0.15,-0.94,29.11,44.41,-60.02
75028,-0.73,1.83,-0.43,-0.38,0.16,-0.94,27.91,43.96,-59.41
75058,-0.73,1.89,-0.43,-0.39,0.14,-0.94,28.06,43.81,-61.07
75089,-0.79,1.83,-0.43,-0.39,0.15,-0.93,28.21,42.46,-59.41
75120,-0.79,1.89,-0.43,-0.39,0.16,-0.94,27.01,43.36,-61.07
75150,-0.79,1.89,-0.37,-0.39,0.14,-0.94,27.91,42.46,-60.17
75184,-0.79,1.89,-0.43,-0.38,0.15,-0.94,28.06,42.61,-60.32
75215,-0.85,1.89,-0.43,-0.4,0.16,-0.95,28.06,44.86,-59.56
75246,-0.79,1.89,-0.49,-0.39,0.15,-0.94,28.51,44.41,-60.02
75276,-0.73,1.83,-0.43,-0.38,0.15,-0.94,27.76,43.06,-58.96
75307,-0.79,1.89,-0.43,-0.39,0.15,-0.95,27.16,42.91,-58.06
75337,-0.79,1.89,-0.43,-0.39,0.16,-0.93,28.21,44.26,-59.71
75368,-0.79,1.95,-0.37,-0.39,0.16,-0.94,27.91,42.91,-58.66
75399,-0.67,1.89,-0.43,-0.38,0.15,-0.95,28.21,44.71,-59.71
75433,-0.73,1.89,-0.43,-0.38,0.15,-0.94,27.61,41.71,-60.47
75463,-0.79,1.89,-0.43,-0.38,0.15,-0.95,27.91,44.71,-60.77
75494,-0.73,1.95,-0.37,-0.39,0.15,-0.93,28.96,41.71,-60.77
75525,-0.85,1.89,-0.43,-0.39,0.15,-0.95,27.61,43.21,-58.66
75555,-0.79,1.83,-0.43,-0.39,0.16,-0.94,28.51,43.36,-59.56
75586,-0.79,1.83,-0.49,-0.38,0.15,-0.95,28.81,44.41,-61.07
75617,-0.73,1.95,-0.43,-0.38,0.15,-0.92,27.76,42.61,-60.02
75651,-0.73,1.89,-0.43,-0.39,0.16,-0.94,27.76,43.81,-59.26
75681,-0.73,1.89,-0.43,-0.39,0.15,-0.93,28.81,43.81,-61.07
75712,-0.79,1.89,-0.49,-0.39,0.14,-0.96,26.86,43.51,-60.17
75742,-0.73,1.89,-0.43,-0.38,0.15,-0.94,28.81,42.31,-60.32
75773,-0.73,1.95,-0.3,-0.39,0.15,-0.94,28.06,44.41,-59.56
75804,-0.79,1.89,-0.43,-0.39,0.14,-0.95,27.61,43.51,-61.22
75834,-0.79,1.95,-0.37,-0.39,0.15,-0.95,29.11,44.11,-60.32
75865,-0.79,1.89,-0.37,-0.39,0.15,-0.94,28.51,44.41,-60.32
75899,-0.79,1.95,-0.37,-0.38,0.16,-0.95,27.01,42.61,-60.32
75930,-0.79,1.89,-0.43,-0.39,0.14,-0.95,27.31,43.81,-61.07
75960,-0.79,1.89,-0.37,-0.39,0.15,-0.95,27.61,42.91,-59.71
75991,-0.79,1.89,-0.37,-0.39,0.15,-0.94,26.41,42.46,-60.77
76021,-0.79,1.89,-0.37,-0.38,0.15,-0.93,28.06,43.06,-60.02
76052,-0.79,1.89,-0.43,-0.39,0.15,-0.95,28.06,42.61,-61.37
76083,-0.79,1.89,-0.43,-0.38,0.14,-0.94,28.96,43.51,-60.47
76117,-0.73,1.89,-0.43,-0.39,0.16,-0.94,29.56,43.81,-58.51
76147,-0.79,1.89,-0.43,-0.4,0.15,-0.95,28.96,43.51,-58.66
76178,-0.73,1.83,-0.43,-0.39,0.14,-0.94,30.01,44.26,-60.77
76209,-0.79,1.89,-0.43,-0.4,0.15,-0.93,28.06,43.36,-60.02
76239,-0.79,1.89,-0.43,-0.39,0.15,-0.94,28.21,42.46,-61.22
76282,-0.79,1.95,-0.37,-0.39,0.15,-0.95,28.51,42.61,-59.56
76313,-0.79,1.95,-0.43,-0.39,0.14,-0.94,28.21,41.71,-60.17
76344,-0.67,1.89,-0.43,-0.39,0.15,-0.94,27.91,43.51,-59.41
76378,-0.73,1.95,-0.43,-0.39,0.15,-0.95,28.51,43.36,-60.32
76408,-0.79,1.89,-0.37,-0.39,0.15,-0.94,28.66,43.21,-58.36
76446,-0.79,1.89,-0.43,-0.39,0.15,-0.95,28.81,42.61,-60.02
76476,-0.79,1.89,-0.43,-0.4,0.15,-0.93,28.96,42.91,-59.71
76507,-0.79,1.89,-0.43,-0.39,0.15,-0.93,28.66,43.21,-60.17
76537,-0.73,1.89,-0.37,-0.39,0.15,-0.94,28.66,42.91,-62.27
76568,-0.73,1.95,-0.43,-0.39,0.15,-0.94,28.66,42.91,-60.17
76602,-0.73,1.95,-0.43,-0.39,0.15,-0.95,29.11,43.81,-60.62
76633,-0.73,1.95,-0.37,-0.39,0.14,-0.94,28.96,43.51,-60.47
76663,-0.79,1.89,-0.43,-0.38,0.15,-0.95,28.21,44.71,-60.17
76694,-0.79,1.89,-0.43,-0.39,0.15,-0.95,27.16,42.91,-59.71
76725,-0.79,1.89,-0.43,-0.39,0.15,-0.94,28.21,42.91,-59.71
76755,-0.79,1.83,-0.37,-0.39,0.14,-0.94,28.51,44.41,-60.02
76786,-0.73,1.89,-0.43,-0.38,0.16,-0.93,28.51,44.41,-61.37
76817,-0.79,1.95,-0.37,-0.39,0.15,-0.93,26.71,42.61,-59.56
76851,-0.79,1.89,-0.49,-0.4,0.15,-0.94,28.51,42.01,-61.07
76881,-0.73,1.95,-0.43,-0.39,0.15,-0.94,27.91,42.91,-60.77
76912,-0.73,1.89,-0.37,-0.39,0.16,-0.93,27.91,43.96,-60.17
76942,-0.73,1.95,-0.43,-0.39,0.16,-0.93,28.21,42.91,-60.77
76973,-0.73,1.89,-0.43,-0.38,0.14,-0.94,29.86,43.06,-60.62
77004,-0.79,1.95,-0.49,-0.38,0.14,-0.94,28.96,44.26,-60.17
77034,-0.73,1.89,-0.43,-0.39,0.15,-0.96,28.06,44.11,-61.07
77068,-0.73,1.89,-0.49,-0.39,0.15,-0.93,27.16,45.76,-59.71
77099,-0.67,1.83,-0.37,-0.38,0.14,-0.94,27.91,45.31,-60.17
77130,-0.79,1.95,-0.43,-0.38,0.15,-0.94,28.66,45.01,-59.11
77160,-0.79,1.89,-0.37,-0.38,0.15,-0.93,28.66,42.91,-59.71
77191,-0.73,1.83,-0.37,-0.39,0.15,-0.93,27.01,43.36,-60.32
77222,-0.79,1.89,-0.43,-0.39,0.14,-0.96,28.81,43.36,-60.02
77252,-0.79,1.95,-0.43,-0.39,0.15,-0.95,28.06,43.06,-60.32
77283,-0.79,1.83,-0.43,-0.39,0.15,-0.94,28.51,44.11,-61.67
77317,-0.79,1.89,-0.43,-0.38,0.15,-0.94,29.71,43.21,-60.77
77347,-0.73,1.89,-0.3,-0.39,0.15,-0.95,28.96,45.31,-60.17
77378,-0.73,1.89,-0.37,-0.39,0.15,-0.93,28.51,43.36,-61.07
77409,-0.73,1.89,-0.49,-0.38,0.15,-0.95,27.91,43.96,-62.57
77439,-0.79,1.89,-0.43,-0.39,0.15,-0.94,28.21,44.26,-59.71
77470,-0.79,1.89,-0.43,-0.38,0.15,-0.94,28.51,44.11,-58.51
77501,-0.85,1.89,-0.37,-0.39,0.15,-0.94,27.16,43.21,-60.17
77535,-0.79,1.89,-0.37,-0.38,0.16,-0.94,27.61,43.51,-59.11
77565,-0.79,1.89,-0.43,-0.38,0.16,-0.93,26.71,44.41,-60.32
77596,-0.85,1.89,-0.43,-0.38,0.15,-0.94,27.61,42.91,-60.77
77627,-0.73,1.89,-0.37,-0.39,0.15,-0.93,28.96,43.21,-59.71
77657,-0.79,1.83,-0.37,-0.38,0.15,-0.94,28.81,42.61,-60.62
77688,-0.79,1.89,-0.43,-0.39,0.16,-0.94,28.51,43.36,-60.62
77718,-0.79,1.89,-0.43,-0.39,0.15,-0.94,27.31,43.36,-60.32
77749,-0.73,1.89,-0.37,-0.39,0.15,-0.94,27.01,44.41,-60.02
77783,-0.79,1.95,-0.37,-0.39,0.15,-0.95,28.51,43.81,-60.02
77814,-0.79,1.83,-0.37,-0.38,0.15,-0.94,26.41,43.51,-60.47
77844,-0.73,1.89,-0.37,-0.39,0.15,-0.95,27.01,44.11,-60.62
77875,-0.79,1.83,-0.43,-0.39,0.15,-0.95,27.16,43.96,-60.17
77905,-0.73,1.89,-0.43,-0.39,0.15,-0.94,28.66,44.71,-60.77
77936,-0.79,1.89,-0.49,-0.39,0.15,-0.94,27.16,44.26,-59.71
77967,-0.79,1.89,-0.43,-0.39,0.15,-0.93,28.66,43.96,-60.17
78001,-0.73,1.83,-0.43,-0.38,0.15,-0.94,27.76,43.06,-59.56
78031,-0.79,1.89,-0.37,-0.38,0.14,-0.94,28.51,42.31,-60.62
78062,-0.85,1.89,-0.43,-0.39,0.14,-0.95,26.26,43.36,-60.62
78093,-0.79,1.89,-0.37,-0.39,0.15,-0.94,28.06,44.41,-60.02
78123,-0.73,1.89,-0.43,-0.38,0.15,-0.94,28.51,43.81,-59.56
78169,-0.79,1.83,-0.43,-0.39,0.16,-0.94,29.86,42.31,-60.02
78200,-0.79,1.89,-0.49,-0.39,0.14,-0.93,27.61,43.21,-59.11
78231,-0.85,1.89,-0.49,-0.38,0.15,-0.95,28.66,43.21,-59.11
78265,-0.73,1.83,-0.43,-0.38,0.15,-0.93,28.06,43.81,-59.26
78296,-0.73,1.89,-0.37,-0.39,0.15,-0.95,28.06,42.61,-59.26
78326,-0.79,1.95,-0.37,-0.39,0.14,-0.93,25.81,43.96,-60.17
78357,-0.73,1.95,-0.37,-0.39,0.15,-0.94,27.61,43.21,-60.17
78388,-0.79,1.89,-0.49,-0.39,0.15,-0.95,28.96,43.96,-60.47
78418,-0.79,1.89,-0.43,-0.38,0.15,-0.94,27.76,42.61,-60.62
78449,-0.79,1.89,-0.43,-0.38,0.16,-0.94,28.21,43.51,-59.41
78483,-0.79,1.83,-0.43,-0.4,0.15,-0.95,28.21,45.01,-60.47
78514,-0.79,1.89,-0.43,-0.39,0.15,-0.95,26.86,43.51,-59.71
78544,-0.79,1.89,-0.43,-0.39,0.15,-0.94,28.81,43.81,-61.37
78575,-0.79,1.89,-0.37,-0.38,0.15,-0.94,27.76,43.36,-60.02
78605,-0.79,1.89,-0.43,-0.39,0.16,-0.93,26.86,42.91,-60.47
78636,-0.79,1.89,-0.37,-0.39,0.14,-0.94,27.31,42.31,-58.96
78667,-0.79,1.89,-0.37,-0.39,0.15,-0.94,28.51,42.61,-59.56
78697,-0.79,1.89,-0.43,-0.39,0.14,-0.94,26.86,41.71,-60.17
78731,-0.79,1.89,-0.43,-0.38,0.15,-0.93,28.06,43.81,-58.51
78762,-0.85,1.89,-0.37,-0.38,0.15,-0.94,28.66,43.21,-59.11
78793,-0.79,1.89,-0.37,-0.39,0.14,-0.95,28.06,43.81,-59.56
78823,-0.79,1.89,-0.37,-0.39,0.15,-0.95,27.31,43.36,-59.26
78854,-0.79,1.89,-0.37,-0.38,0.14,-0.94,27.01,43.36,-57.91
78885,-0.73,1.89,-0.43,-0.39,0.15,-0.94,27.01,43.06,-60.02
78915,-0.73,1.89,-0.43,-0.39,0.15,-0.94,28.66,43.21,-58.66
78946,-0.79,1.89,-0.43,-0.39,0.15,-0.92,28.81,43.36,-59.56
78975,-0.73,1.89,-0.37,-0.39,0.15,-0.95,27.16,44.71,-59.41
79005,-0.73,1.83,-0.43,-0.39,0.15,-0.94,28.66,43.96,-60.17
79036,-0.73,1.89,-0.43,-0.38,0.15,-0.94,28.06,42.61,-60.32
79067,-0.79,1.89,-0.43,-0.4,0.15,-0.93,26.71,43.06,-60.02
79097,-0.79,1.89,-0.43,-0.4,0.15,-0.94,25.81,43.21,-59.41
79128,-0.79,1.83,-0.43,-0.39,0.15,-0.94,28.06,42.61,-61.07
79158,-0.73,1.89,-0.49,-0.38,0.16,-0.94,29.56,44.11,-60.32
79192,-0.79,1.89,-0.43,-0.39,0.14,-0.94,27.91,42.91,-60.47
79223,-0.73,1.95,-0.37,-0.39,0.14,-0.94,28.81,43.36,-60.32
79254,-0.73,1.89,-0.37,-0.39,0.15,-0.93,27.61,43.96,-60.47
79284,-0.73,1.83,-0.37,-0.38,0.14,-0.93,28.51,43.06,-60.02
79315,-0.79,1.89,-0.43,-0.39,0.15,-0.94,28.96,43.21,-59.11
79346,-0.73,1.89,-0.37,-0.38,0.16,-0.94,28.96,42.91,-61.52
79376,-0.73,1.83,-0.43,-0.39,0.15,-0.95,27.76,44.41,-59.26
79407,-0.73,1.89,-0.43,-0.4,0.16,-0.94,27.31,43.81,-60.02
79441,-0.73,1.83,-0.43,-0.4,0.15,-0.93,28.66,42.91,-61.22
79471,-0.79,1.89,-0.37,-0.38,0.15,-0.94,28.81,44.11,-60.02
79502,-0.73,1.95,-0.43,-0.39,0.15,-0.93,28.21,44.26,-59.11
79533,-0.79,1.95,-0.43,-0.39,0.15,-0.95,27.31,44.11,-60.32
79563,-0.73,1.83,-0.43,-0.39,0.15,-0.93,27.61,43.51,-60.47
79594,-0.73,1.89,-0.37,-0.39,0.15,-0.93,28.66,43.51,-60.47
79625,-0.79,1.89,-0.37,-0.39,0.15,-0.93,27.76,44.41,-62.72
79659,-0.73,1.83,-0.37,-0.39,0.15,-0.95,27.16,43.96,-60.47
79689,-0.73,1.89,-0.37,-0.38,0.14,-0.93,28.66,42.91,-60.17
79720,-0.73,1.89,-0.43,-0.38,0.15,-0.93,27.76,42.61,-60.32
79750,-0.73,1.89,-0.43,-0.39,0.14,-0.93,29.11,44.11,-61.67
79781,-0.79,1.95,-0.37,-0.39,0.16,-0.94,28.21,42.91,-60.47
79812,-0.73,1.89,-0.43,-0.38,0.14,-0.94,28.21,43.51,-59.41
79842,-0.79,1.89,-0.43,-0.39,0.15,-0.94,28.81,42.31,-61.37
79873,-0.79,1.89,-0.43,-0.38,0.14,-0.95,29.41,44.71,-59.71
79907,-0.79,1.89,-0.37,-0.39,0.15,-0.94,28.66,44.26,-60.47
79938,-0.79,1.83,-0.37,-0.4,0.14,-0.93,28.06,43.36,-59.26
79969,-0.79,1.89,-0.37,-0.39,0.15,-0.96,27.91,42.46,-59.41
79999,-0.85,1.83,-0.43,-0.4,0.14,-0.94,28.21,43.51,-59.41
80030,-0.79,1.89,-0.49,-0.38,0.15,-0.94,28.96,42.46,-59.41
80073,-0.79,1.83,-0.37,-0.39,0.15,-0.95,26.71,44.86,-60.32
80103,-0.73,1.95,-0.43,-0.39,0.16,-0.94,27.76,43.36,-60.02
80137,-0.79,1.89,-0.43,-0.38,0.15,-0.95,28.51,43.81,-60.62
80168,-0.73,1.89,-0.43,-0.39,0.15,-0.94,27.91,43.51,-60.77
80199,-0.79,1.89,-0.37,-0.4,0.15,-0.93,27.16,43.51,-60.47
80229,-0.73,1.89,-0.43,-0.38,0.15,-0.95,28.06,43.81,-60.02
80260,-0.79,1.89,-0.43,-0.39,0.15,-0.93,29.86,42.61,-61.07
80290,-0.73,1.95,-0.43,-0.39,0.15,-0.95,28.21,43.51,-60.17
80321,-0.79,1.89,-0.37,-0.39,0.16,-0.94,29.41,42.91,-60.47
80352,-0.79,1.89,-0.43,-0.39,0.16,-0.95,28.81,43.81,-61.37
80392,-0.79,1.89,-0.49,-0.39,0.15,-0.93,27.91,43.51,-60.47
80423,-0.73,1.89,-0.43,-0.39,0.16,-0.94,27.31,43.81,-59.56
80454,-0.79,1.89,-0.37,-0.39,0.15,-0.93,27.01,43.06,-58.96
80484,-0.73,1.83,-0.49,-0.39,0.16,-0.93,28.06,43.81,-61.07
80515,-0.73,1.83,-0.43,-0.39,0.15,-0.95,28.06,42.31,-60.02
80546,-0.79,1.95,-0.43,-0.39,0.15,-0.96,27.01,43.06,-60.32
80576,-0.79,1.89,-0.37,-0.39,0.15,-0.95,28.21,43.96,-60.47
80610,-0.73,1.89,-0.43,-0.39,0.15,-0.95,27.31,44.41,-60.02
80641,-0.73,1.89,-0.43,-0.39,0.14,-0.95,28.06,42.01,-61.07
80671,-0.79,1.89,-0.37,-0.38,0.15,-0.94,29.56,42.31,-59.56
80702,-0.79,1.89,-0.43,-0.39,0.15,-0.93,28.66,43.96,-60.17
80733,-0.73,1.83,-0.43,-0.39,0.15,-0.95,27.91,43.51,-59.71
80763,-0.73,1.95,-0.43,-0.39,0.14,-0.94,27.76,42.61,-58.96
80794,-0.73,1.89,-0.49,-0.38,0.14,-0.93,28.06,43.06,-59.56
80825,-0.73,1.89,-0.43,-0.39,0.15,-0.94,27.01,44.11,-59.56
80859,-0.73,1.89,-0.43,-0.38,0.15,-0.93,28.81,43.81,-59.56
80889,-0.61,1.95,-0.3,-0.39,0.14,-0.94,29.11,42.01,-60.62
80920,-0.67,1.89,-0.43,-0.39,0.16,-0.94,28.51,42.61,-59.56
80951,-0.79,1.89,-0.43,-0.39,0.15,-0.95,27.01,43.06,-60.62
80981,-0.79,1.89,-0.43,-0.39,0.15,-0.95,28.06,43.36,-61.07
81012,-0.79,1.89,-0.43,-0.39,0.15,-0.94,28.66,43.96,-60.47
81043,-0.73,1.89,-0.43,-0.39,0.15,-0.94,28.51,44.41,-61.67
81077,-0.79,1.95,-0.37,-0.38,0.15,-0.94,29.56,43.36,-60.32
81107,-0.79,1.89,-0.43,-0.39,0.15,-0.94,27.61,42.91,-60.47
81138,-0.79,1.89,-0.43,-0.39,0.15,-0.95,28.51,44.11,-61.37
81169,-0.79,1.89,-0.37,-0.39,0.15,-0.92,27.31,44.86,-58.21
81199,-0.73,1.95,-0.43,-0.39,0.14,-0.93,28.06,43.36,-60.32
81230,-0.79,1.89,-0.43,-0.39,0.14,-0.94,28.21,43.21,-60.17
81261,-0.73,1.89,-0.43,-0.39,0.15,-0.95,27.61,42.46,-60.47
81291,-0.79,1.83,-0.37,-0.38,0.15,-0.95,27.61,43.51,-58.66
81325,-0.79,1.89,-0.43,-0.38,0.15,-0.94,28.96,43.21,-60.77
81356,-0.79,1.89,-0.43,-0.39,0.15,-0.95,28.66,43.96,-60.77
81387,-0.73,1.89,-0.37,-0.38,0.14,-0.93,28.06,44.86,-61.07
81417,-0.73,1.89,-0.43,-0.39,0.14,-0.94,28.96,44.71,-61.22
81448,-0.79,1.89,-0.37,-0.39,0.15,-0.95,28.06,44.86,-61.07
81479,-0.79,1.83,-0.49,-0.39,0.15,-0.93,27.61,42.91,-61.22
81509,-0.79,1.95,-0.43,-0.39,0.16,-0.93,28.21,43.21,-60.47
81543,-0.73,1.83,-0.49,-0.39,0.15,-0.95,27.76,43.81,-61.37
81574,-0.73,1.89,-0.43,-0.39,0.15,-0.96,27.16,43.21,-59.41
81604,-0.79,1.89,-0.43,-0.39,0.15,-0.94,28.21,43.21,-59.41
81635,-0.79,1.83,-0.49,-0.38,0.14,-0.95,27.61,42.91,-59.41
81666,-0.85,1.89,-0.43,-0.38,0.15,-0.94,28.51,42.61,-59.26
81696,-0.79,2.01,-0.37,-0.39,0.15,-0.94,29.41,43.21,-58.66
81727,-0.73,1.89,-0.37,-0.39,0.15,-0.94,28.21,43.51,-60.77
81758,-0.79,1.89,-0.43,-0.38,0.15,-0.95,28.81,44.86,-60.02
81792,-0.73,1.95,-0.49,-0.39,0.15,-0.94,27.76,44.41,-61.07
81822,-0.79,1.83,-0.43,-0.39,0.15,-0.94,27.61,43.21,-60.47
81853,-0.73,1.89,-0.43,-0.39,0.15,-0.95,27.31,43.06,-60.32
81884,-0.73,1.95,-0.43,-0.38,0.15,-0.95,28.21,43.96,-61.52
81914,-0.79,1.95,-0.43,-0.39,0.15,-0.95,27.76,44.11,-60.32
81966,-0.73,1.83,-0.49,-0.39,0.15,-0.95,27.76,41.56,-60.62
81997,-0.73,1.83,-0.43,-0.39,0.15,-0.92,28.96,44.26,-60.47
82031,-0.73,1.89,-0.43,-0.39,0.15,-0.94,28.06,42.61,-60.32
82061,-0.73,1.89,-0.49,-0.39,0.15,-0.95,26.71,43.81,-59.26
82092,-0.79,1.89,-0.49,-0.38,0.14,-0.95,28.66,44.26,-59.71
82123,-0.73,1.89,-0.43,-0.39,0.16,-0.94,28.81,42.61,-61.37
82153,-0.79,1.89,-0.43,-0.39,0.14,-0.94,28.06,44.11,-59.56
82184,-0.79,1.89,-0.43,-0.39,0.15,-0.93,29.56,43.81,-60.32
82215,-0.73,1.83,-0.43,-0.39,0.16,-0.95,27.76,44.86,-59.56
82245,-0.79,1.89,-0.43,-0.39,0.15,-0.94,27.76,43.36,-61.07
82279,-0.79,1.89,-0.43,-0.38,0.16,-0.95,28.21,43.51,-59.71
82310,-0.79,1.89,-0.43,-0.39,0.15,-0.94,29.71,43.96,-60.17
82341,-0.79,1.89,-0.43,-0.39,0.15,-0.94,27.16,43.21,-59.71
82371,-0.79,1.89,-0.3,-0.39,0.15,-0.93,29.71,42.91,-61.22
82402,-0.73,1.89,-0.37,-0.4,0.15,-0.94,28.06,44.11,-59.56
82433,-0.79,1.83,-0.49,-0.4,0.16,-0.94,27.76,43.36,-60.32
82463,-0.73,1.89,-0.37,-0.4,0.14,-0.95,28.66,42.91,-60.47
82497,-0.79,1.89,-0.43,-0.39,0.15,-0.95,29.71,43.96,-59.41
82528,-0.79,1.89,-0.49,-0.38,0.15,-0.94,28.66,43.21,-59.71
82558,-0.73,1.89,-0.43,-0.38,0.15,-0.93,27.91,43.51,-60.17
82589,-0.79,1.89,-0.43,-0.38,0.15,-0.93,28.51,43.06,-60.32
82620,-0.73,1.83,-0.43,-0.39,0.15,-0.94,28.06,43.36,-61.07
82650,-0.79,1.89,-0.43,-0.4,0.15,-0.94,29.11,43.36,-60.62
82681,-0.73,1.89,-0.43,-0.39,0.15,-0.94,28.21,43.51,-60.47
82712,-0.73,1.89,-0.49,-0.38,0.15,-0.95,28.66,44.71,-59.41
82746,-0.73,1.89,-0.43,-0.39,0.15,-0.95,27.76,43.81,-60.02
82776,-0.79,1.89,-0.43,-0.39,0.15,-0.94,28.66,43.96,-60.47
82807,-0.73,1.89,-0.43,-0.38,0.15,-0.94,26.86,43.21,-62.27
82838,-0.79,1.89,-0.43,-0.39,0.15,-0.94,28.06,42.61,-58.96
82868,-0.73,1.89,-0.43,-0.38,0.16,-0.96,30.01,41.41,-60.17
82899,-0.73,1.95,-0.43,-0.39,0.15,-0.94,26.71,42.31,-58.51
82930,-0.73,1.89,-0.37,-0.38,0.15,-0.94,28.96,42.91,-60.77
82960,-0.79,1.89,-0.37,-0.38,0.15,-0.94,27.61,43.21,-60.17
82989,-0.73,1.95,-0.43,-0.39,0.16,-0.94,27.61,44.26,-61.22
83019,-0.79,1.89,-0.37,-0.39,0.15,-0.93,28.66,43.96,-59.71
83050,-0.73,1.83,-0.37,-0.39,0.15,-0.94,28.21,43.51,-61.22
83081,-0.79,1.89,-0.37,-0.39,0.15,-0.93,26.86,43.96,-59.11
83111,-0.79,1.89,-0.37,-0.4,0.15,-0.94,29.56,43.36,-60.32
83142,-0.67,1.89,-0.43,-0.38,0.16,-0.93,27.01,43.81,-60.32
83173,-0.73,1.89,-0.49,-0.38,0.15,-0.94,28.66,43.21,-60.47
83207,-0.79,1.83,-0.43,-0.39,0.15,-0.93,27.01,45.01,-59.71
83237,-0.67,1.95,-0.43,-0.39,0.15,-0.94,28.81,42.61,-61.07
83268,-0.73,1.89,-0.43,-0.39,0.14,-0.94,28.06,42.61,-59.56
83298,-0.79,1.89,-0.43,-0.39,0.15,-0.93,30.31,43.81,-60.62
83329,-0.79,1.89,-0.43,-0.39,0.16,-0.93,28.66,41.71,-60.77
83360,-0.79,1.89,-0.43,-0.39,0.15,-0.94,28.21,44.26,-60.17
83390,-0.79,1.89,-0.43,-0.39,0.15,-0.94,28.51,42.01,-60.32
83421,-0.79,1.89,-0.49,-0.39,0.14,-0.95,28.21,42.91,-60.47
83455,-0.73,1.89,-0.3,-0.39,0.16,-0.95,27.31,43.81,-60.62
83486,-0.73,1.89,-0.43,-0.39,0.15,-0.94,27.76,43.06,-61.67
83516,-0.79,1.89,-0.37,-0.39,0.15,-0.94,28.06,43.06,-60.32
83547,-0.73,1.89,-0.37,-0.4,0.15,-0.93,27.91,43.96,-60.47
83578,-0.73,1.89,-0.37,-0.39,0.16,-0.93,28.21,43.51,-60.17
83608,-0.67,1.95,-0.43,-0.4,0.15,-0.93,28.51,43.36,-60.02
83639,-0.73,1.83,-0.43,-0.39,0.16,-0.95,28.06,42.01,-59.56
83673,-0.73,1.89,-0.43,-0.39,0.15,-0.95,27.91,44.26,-59.11
83704,-0.73,1.83,-0.49,-0.39,0.14,-0.94,26.71,43.06,-59.56
83734,-0.79,1.89,-0.43,-0.39,0.14,-0.94,27.76,43.06,-61.37
83765,-0.73,1.89,-0.43,-0.39,0.15,-0.94,27.76,44.11,-60.32
83795,-0.73,1.89,-0.49,-0.39,0.15,-0.95,28.81,43.81,-59.56
83839,-0.73,1.89,-0.43,-0.39,0.15,-0.94,27.01,42.61,-60.02
83869,-0.79,1.83,-0.43,-0.4,0.15,-0.95,28.66,42.91,-61.82
83900,-0.79,1.83,-0.43,-0.39,0.15,-0.95,27.76,43.81,-59.56
83934,-0.79,1.89,-0.37,-0.38,0.15,-0.94,28.51,43.81,-60.32
83964,-0.73,1.95,-0.37,-0.39,0.14,-0.95,27.91,43.96,-59.71
83995,-0.79,1.83,-0.43,-0.39,0.15,-0.94,28.21,43.51,-60.47
84026,-0.79,1.89,-0.43,-0.39,0.15,-0.94,28.06,42.31,-60.32
84056,-0.85,1.83,-0.43,-0.38,0.15,-0.94,26.86,42.46,-60.17
84087,-0.73,1.89,-0.37,-0.39,0.15,-0.93,27.76,42.01,-60.32
84118,-0.79,1.83,-0.43,-0.39,0.15,-0.95,29.11,43.06,-60.32
84152,-0.79,1.89,-0.43,-0.39,0.16,-0.96,28.06,44.11,-60.02
84182,-0.73,1.89,-0.49,-0.39,0.15,-0.95,29.71,43.21,-60.47
84213,-0.79,1.89,-0.49,-0.39,0.15,-0.94,27.16,44.26,-61.82
84244,-0.79,1.89,-0.43,-0.39,0.15,-0.94,27.01,43.36,-61.07
84274,-0.73,1.89,-0.43,-0.39,0.15,-0.95,27.91,43.51,-60.17
84311,-0.73,1.89,-0.43,-0.39,0.16,-0.95,27.61,44.26,-59.41
84342,-0.79,1.89,-0.43,-0.39,0.15,-0.93,27.61,43.96,-61.82
84373,-0.79,1.89,-0.43,-0.39,0.15,-0.93,27.76,43.36,-60.02
84407,-0.79,1.89,-0.43,-0.39,0.16,-0.95,28.66,42.91,-60.77
84437,-0.79,1.89,-0.43,-0.39,0.16,-0.93,28.21,44.26,-60.17
84468,-0.73,1.89,-0.43,-0.38,0.16,-0.94,27.91,42.91,-60.47
84499,-0.79,1.89,-0.49,-0.39,0.15,-0.94,27.31,42.61,-60.02
84529,-0.79,1.89,-0.43,-0.38,0.15,-0.93,27.76,42.01,-61.07
84560,-0.73,1.83,-0.43,-0.39,0.15,-0.93,27.76,44.11,-61.37
84590,-0.79,1.89,-0.37,-0.39,0.15,-0.93,27.31,43.06,-60.02
84625,-0.79,1.83,-0.37,-0.39,0.14,-0.94,27.76,42.31,-59.26
84655,-0.79,1.89,-0.43,-0.39,0.15,-0.93,28.96,43.51,-60.77
84686,-0.73,1.83,-0.43,-0.38,0.16,-0.94,28.51,44.86,-60.02
84716,-0.79,1.89,-0.37,-0.39,0.14,-0.93,26.86,43.51,-61.22
84747,-0.79,1.83,-0.37,-0.39,0.15,-0.95,28.51,43.36,-60.02
84778,-0.79,1.89,-0.43,-0.39,0.15,-0.94,26.26,44.41,-61.67
84808,-0.85,1.89,-0.43,-0.39,0.15,-0.93,28.96,42.91,-61.22
84839,-0.79,1.89,-0.37,-0.39,0.15,-0.94,27.61,43.96,-61.82
84873,-0.79,1.89,-0.37,-0.39,0.15,-0.93,28.66,43.96,-60.77
84904,-0.85,1.95,-0.43,-0.4,0.16,-0.94,26.41,43.21,-60.47
84934,-0.79,1.89,-0.37,-0.39,0.15,-0.94,28.06,42.01,-59.56
84965,-0.73,1.95,-0.49,-0.39,0.16,-0.95,28.21,44.26,-59.41
84996,-0.85,1.89,-0.43,-0.39,0.15,-0.93,29.41,41.71,-60.17
85026,-0.79,1.95,-0.43,-0.39,0.15,-0.95,28.06,43.36,-59.56
85057,-0.79,1.83,-0.43,-0.39,0.15,-0.94,28.66,43.21,-60.17
85091,-0.79,1.89,-0.43,-0.39,0.16,-0.95,27.91,42.91,-60.17
85121,-0.79,1.83,-0.43,-0.39,0.16,-0.94,27.61,42.46,-59.11
85152,-0.79,1.89,-0.37,-0.4,0.16,-0.95,27.16,42.91,-59.41
85183,-0.79,1.83,-0.37,-0.4,0.15,-0.95,28.66,42.91,-61.22
85213,-0.79,1.89,-0.43,-0.38,0.15,-0.94,28.81,44.86,-60.62
85244,-0.79,1.83,-0.43,-0.39,0.17,-0.95,28.66,44.26,-60.17
85275,-0.79,1.89,-0.37,-0.38,0.15,-0.94,28.06,43.36,-60.62
85305,-0.79,1.89,-0.43,-0.39,0.15,-0.95,28.21,43.21,-59.11
85339,-0.73,1.83,-0.43,-0.39,0.14,-0.93,27.61,43.96,-59.71
85370,-0.79,1.89,-0.49,-0.4,0.14,-0.93,28.21,44.26,-60.77
85400,-0.73,1.83,-0.43,-0.38,0.15,-0.94,28.21,43.96,-59.71
85431,-0.73,1.89,-0.49,-0.38,0.15,-0.94,28.51,43.06,-60.32
85462,-0.79,1.89,-0.43,-0.38,0.16,-0.93,28.66,43.51,-60.47
85492,-0.79,1.89,-0.49,-0.39,0.14,-0.94,27.01,44.41,-61.67
85523,-0.79,1.89,-0.43,-0.39,0.14,-0.93,28.66,43.51,-61.52
85557,-0.79,1.83,-0.43,-0.38,0.16,-0.94,27.31,44.41,-60.32
85588,-0.79,1.89,-0.37,-0.39,0.15,-0.93,28.66,41.71,-60.47
85619,-0.73,1.89,-0.49,-0.39,0.15,-0.95,27.31,43.81,-60.62
85649,-0.73,1.89,-0.43,-0.39,0.14,-0.94,28.51,43.36,-62.12
85680,-0.79,1.89,-0.43,-0.39,0.15,-0.95,27.61,43.51,-59.71
85735,-0.79,1.95,-0.43,-0.39,0.15,-0.95,27.61,42.46,-59.71
85765,-0.73,1.95,-0.43,-0.38,0.14,-0.94,28.21,43.96,-59.71
85796,-0.79,1.83,-0.37,-0.39,0.16,-0.94,28.66,43.96,-59.71
85830,-0.79,1.83,-0.49,-0.39,0.15,-0.95,28.66,43.21,-60.17
85861,-0.79,1.89,-0.37,-0.39,0.15,-0.94,27.16,44.71,-60.47
85891,-0.73,1.89,-0.37,-0.39,0.15,-0.94,28.06,43.36,-59.56
85922,-0.79,1.83,-0.43,-0.4,0.15,-0.93,27.31,44.11,-60.02
85953,-0.79,1.89,-0.43,-0.38,0.14,-0.94,29.11,43.81,-61.07
85983,-0.73,1.83,-0.49,-0.38,0.15,-0.93,27.91,45.31,-60.17
86014,-0.79,1.89,-0.43,-0.39,0.14,-0.93,29.11,43.81,-60.32
86048,-0.73,1.83,-0.43,-0.39,0.15,-0.95,28.21,43.96,-61.52
86079,-0.79,1.83,-0.43,-0.39,0.15,-0.95,27.61,43.21,-59.41
86109,-0.73,1.89,-0.43,-0.39,0.14,-0.94,27.61,43.51,-59.71
86140,-0.73,1.89,-0.37,-0.39,0.15,-0.94,28.06,44.11,-60.32
86170,-0.79,1.89,-0.43,-0.38,0.15,-0.95,28.06,44.11,-60.02
86201,-0.79,1.89,-0.49,-0.39,0.15,-0.94,28.06,43.06,-61.07
86232,-0.79,1.95,-0.43,-0.39,0.16,-0.94,28.66,43.21,-59.41
86263,-0.73,1.83,-0.43,-0.39,0.14,-0.94,28.51,44.41,-59.26
86297,-0.79,1.89,-0.37,-0.4,0.15,-0.94,27.76,44.11,-60.02
86327,-0.73,1.95,-0.43,-0.38,0.15,-0.94,28.66,43.96,-59.41
86358,-0.79,1.89,-0.43,-0.39,0.15,-0.94,27.31,43.06,-61.37
86389,-0.79,1.89,-0.37,-0.39,0.15,-0.94,27.61,44.71,-60.47
86419,-0.79,1.83,-0.3,-0.39,0.14,-0.95,28.81,43.36,-59.26
86450,-0.73,1.83,-0.3,-0.39,0.15,-0.95,27.61,45.01,-60.17
86481,-0.85,1.89,-0.43,-0.39,0.15,-0.95,28.51,44.11,-61.37
86515,-0.79,1.89,-0.43,-0.37,0.15,-0.95,27.01,43.06,-60.02
86545,-0.79,1.89,-0.43,-0.39,0.14,-0.94,28.06,42.61,-61.07
86576,-0.79,1.89,-0.43,-0.39,0.15,-0.93,29.56,42.31,-61.07
86607,-0.79,1.89,-0.43,-0.39,0.15,-0.93,28.81,43.81,-59.26
86637,-0.79,1.89,-0.55,-0.4,0.15,-0.94,27.01,44.86,-60.32
86668,-0.73,1.89,-0.43,-0.39,0.15,-0.94,27.91,43.51,-60.77
86698,-0.79,1.83,-0.43,-0.39,0.15,-0.93,29.41,42.91,-59.41
86729,-0.79,1.83,-0.43,-0.39,0.16,-0.94,27.16,43.21,-60.17
86763,-0.73,1.83,-0.37,-0.38,0.14,-0.95,27.91,43.51,-59.41
86794,-0.79,1.83,-0.37,-0.39,0.16,-0.94,28.21,43.51,-61.52
86824,-0.79,1.95,-0.37,-0.39,0.15,-0.96,28.81,43.81,-60.62
86855,-0.79,1.89,-0.43,-0.39,0.15,-0.94,27.31,42.61,-60.02
86886,-0.79,1.95,-0.43,-0.39,0.16,-0.94,27.01,42.61,-60.32
86916,-0.79,1.83,-0.37,-0.39,0.15,-0.94,27.61,42.91,-61.22
86947,-0.79,1.83,-0.43,-0.4,0.15,-0.95,28.06,42.01,-60.02
86978,-0.73,1.95,-0.3,-0.39,0.15,-0.95,28.81,43.81,-59.56
87006,-0.79,1.89,-0.37,-0.39,0.15,-0.95,28.21,42.46,-58.66
87037,-0.73,1.83,-0.37,-0.39,0.15,-0.95,28.51,43.81,-59.26
87067,-0.79,1.83,-0.43,-0.39,0.15,-0.94,27.91,45.76,-59.71
87098,-0.73,1.83,-0.37,-0.39,0.16,-0.94,27.01,43.81,-58.96
87129,-0.73,1.89,-0.37,-0.39,0.14,-0.94,28.51,43.81,-60.02
87159,-0.73,1.89,-0.37,-0.39,0.14,-0.93,27.91,43.96,-60.47
87190,-0.73,1.89,-0.43,-0.39,0.14,-0.93,27.76,44.41,-60.32
87224,-0.73,1.89,-0.43,-0.39,0.14,-0.95,27.76,42.01,-61.37
87255,-0.79,1.89,-0.43,-0.39,0.15,-0.94,27.16,43.21,-60.47
87285,-0.79,1.89,-0.49,-0.39,0.15,-0.95,27.61,43.21,-59.41
87316,-0.79,1.95,-0.43,-0.38,0.15,-0.94,28.06,43.81,-60.62
87347,-0.79,1.89,-0.37,-0.38,0.15,-0.94,28.06,43.81,-59.26
87377,-0.73,1.89,-0.49,-0.39,0.14,-0.94,27.76,43.06,-60.02
87408,-0.67,1.89,-0.3,-0.38,0.14,-0.94,27.91,44.26,-61.22
87439,-0.79,1.89,-0.43,-0.38,0.15,-0.93,28.21,42.46,-59.71
87473,-0.79,1.95,-0.49,-0.39,0.16,-0.95,29.56,43.81,-61.07
87503,-0.73,1.89,-0.43,-0.39,0.16,-0.94,26.71,44.11,-60.02
87534,-0.73,1.89,-0.43,-0.39,0.15,-0.95,28.66,42.16,-60.77
87565,-0.79,1.83,-0.43,-0.39,0.15,-0.95,28.96,43.21,-60.17
87595,-0.73,1.89,-0.37,-0.38,0.15,-0.94,27.16,44.71,-60.77
87638,-0.79,1.89,-0.43,-0.39,0.15,-0.93,27.01,44.86,-60.02
87669,-0.79,1.83,-0.43,-0.39,0.15,-0.94,27.61,44.71,-59.41
87703,-0.79,1.89,-0.43,-0.39,0.14,-0.95,28.21,43.96,-60.47
87733,-0.79,1.89,-0.43,-0.39,0.15,-0.94,28.06,42.31,-61.67
87764,-0.79,1.89,-0.43,-0.39,0.15,-0.94,28.21,45.01,-60.17
87795,-0.73,1.89,-0.43,-0.4,0.15,-0.95,28.51,42.61,-61.37
87825,-0.73,1.89,-0.37,-0.39,0.15,-0.94,27.31,44.11,-59.56
87856,-0.79,1.89,-0.43,-0.39,0.15,-0.94,29.11,43.36,-59.56
87887,-0.73,1.89,-0.43,-0.39,0.15,-0.93,29.41,43.21,-59.71
87917,-0.79,1.83,-0.43,-0.39,0.15,-0.94,29.11,43.81,-61.07
87951,-0.73,1.83,-0.43,-0.39,0.15,-0.94,29.41,43.96,-59.41
87982,-0.79,1.89,-0.49,-0.39,0.16,-0.94,26.86,42.91,-61.22
88013,-0.79,1.89,-0.43,-0.39,0.15,-0.94,27.31,44.11,-60.62
88043,-0.73,1.83,-0.37,-0.38,0.16,-0.93,28.81,43.81,-59.56
88074,-0.73,1.83,-0.43,-0.4,0.15,-0.94,28.66,41.71,-61.52
88105,-0.85,1.83,-0.43,-0.38,0.15,-0.94,27.61,42.46,-60.47
88135,-0.79,1.89,-0.49,-0.39,0.15,-0.94,27.31,43.81,-60.32
88169,-0.73,1.83,-0.49,-0.38,0.15,-0.94,28.66,43.96,-61.82
88206,-0.73,1.89,-0.43,-0.39,0.16,-0.94,27.61,43.21,-60.47
88237,-0.79,1.83,-0.43,-0.38,0.15,-0.94,28.06,43.36,-60.62
88268,-0.79,1.89,-0.43,-0.39,0.15,-0.95,29.41,42.46,-60.47
88298,-0.79,1.89,-0.37,-0.38,0.15,-0.96,27.31,42.61,-60.62
88329,-0.73,1.83,-0.49,-0.39,0.15,-0.93,28.51,43.06,-60.62
88360,-0.79,1.83,-0.49,-0.39,0.16,-0.94,29.41,43.51,-60.17
88390,-0.79,1.89,-0.37,-0.39,0.15,-0.95,28.81,44.11,-60.02
88424,-0.73,1.83,-0.43,-0.4,0.15,-0.95,27.91,42.91,-59.71
88455,-0.79,1.89,-0.43,-0.39,0.14,-0.95,28.81,43.81,-60.62
88486,-0.79,1.89,-0.37,-0.4,0.15,-0.94,28.06,43.36,-61.07
88516,-0.73,1.77,-0.43,-0.4,0.15,-0.95,28.96,43.21,-60.77
88547,-0.79,1.83,-0.43,-0.39,0.15,-0.95,28.21,43.21,-61.22
88577,-0.73,1.89,-0.49,-0.39,0.15,-0.93,28.21,44.71,-61.22
88608,-0.73,2.01,-0.49,-0.38,0.16,-0.95,27.16,43.96,-60.17
88642,-0.79,1.83,-0.49,-0.38,0.14,-0.95,28.81,44.41,-59.56
88673,-0.85,1.89,-0.43,-0.4,0.15,-0.94,27.31,42.61,-60.32
88703,-0.79,1.95,-0.43,-0.39,0.15,-0.94,28.96,44.26,-60.77
88734,-0.79,1.89,-0.37,-0.38,0.14,-0.95,28.21,42.46,-59.71
88765,-0.73,1.89,-0.37,-0.39,0.16,-0.94,29.41,43.21,-60.17
88795,-0.73,1.83,-0.43,-0.39,0.15,-0.95,29.11,44.11,-61.07
88826,-0.79,1.95,-0.43,-0.38,0.15,-0.94,27.31,44.41,-61.07
88857,-0.73,1.83,-0.43,-0.38,0.14,-0.94,28.81,43.81,-60.62
88891,-0.73,1.89,-0.43,-0.39,0.15,-0.93,27.91,43.96,-60.17
88921,-0.79,1.83,-0.43,-0.39,0.16,-0.94,27.91,43.51,-60.47
88952,-0.79,1.83,-0.37,-0.38,0.15,-0.95,28.51,44.86,-60.02
88983,-0.79,1.83,-0.49,-0.39,0.15,-0.95,28.81,43.36,-60.32
89013,-0.79,1.89,-0.49,-0.38,0.14,-0.95,28.21,45.76,-60.47
89044,-0.79,1.89,-0.43,-0.38,0.15,-0.94,27.91,45.01,-60.47
89075,-0.79,1.89,-0.49,-0.39,0.14,-0.94,28.66,41.41,-60.17
89109,-0.79,1.89,-0.43,-0.39,0.15,-0.94,27.61,43.51,-59.71
89139,-0.73,1.89,-0.43,-0.38,0.14,-0.92,28.81,43.81,-61.67
89170,-0.67,1.83,-0.49,-0.4,0.17,-0.93,29.71,44.71,-60.77
89200,-0.73,1.89,-0.43,-0.38,0.15,-0.94,27.31,42.61,-59.26
89231,-0.73,1.89,-0.43,-0.39,0.16,-0.95,27.76,44.11,-58.51
89262,-0.73,1.89,-0.43,-0.39,0.15,-0.93,27.61,43.51,-59.41
89292,-0.73,1.89,-0.43,-0.38,0.15,-0.94,28.21,44.71,-59.11
89323,-0.79,1.95,-0.37,-0.38,0.14,-0.96,29.11,44.41,-59.56
89357,-0.73,1.89,-0.43,-0.38,0.15,-0.94,28.21,44.71,-60.77
89388,-0.73,1.95,-0.37,-0.38,0.15,-0.94,27.31,44.41,-59.56
89419,-0.79,1.83,-0.43,-0.38,0.16,-0.94,29.11,43.06,-60.02
89449,-0.79,1.83,-0.43,-0.39,0.14,-0.96,28.06,43.81,-60.02
89480,-0.79,1.83,-0.37,-0.39,0.15,-0.94,28.66,44.26,-61.82
89533,-0.79,1.89,-0.43,-0.39,0.15,-0.95,29.11,43.06,-61.07
89563,-0.79,1.89,-0.49,-0.39,0.16,-0.94,29.11,43.06,-58.96
89597,-0.73,1.95,-0.43,-0.38,0.15,-0.94,27.31,44.11,-59.26
89628,-0.79,1.83,-0.43,-0.39,0.15,-0.94,27.31,43.06,-59.56
89658,-0.79,1.89,-0.3,-0.39,0.15,-0.94,28.66,43.51,-61.22
89689,-0.73,1.89,-0.37,-0.38,0.15,-0.95,27.61,43.21,-59.71
89719,-0.79,1.95,-0.43,-0.38,0.15,-0.95,27.91,44.71,-60.77
89750,-0.79,2.07,-0.43,-0.38,0.14,-0.95,27.01,43.06,-60.62
89780,-0.79,2.01,-0.49,-0.39,0.15,-0.95,27.61,45.01,-59.71
89811,-0.73,2.01,-0.49,-0.39,0.16,-0.94,27.91,42.91,-59.41
89854,-0.79,1.83,-0.37,-0.39,0.15,-0.93,28.51,42.61,-60.32
89885,-0.79,1.95,-0.37,-0.39,0.15,-0.95,29.56,43.36,-61.37
89915,-0.73,1.95,-0.43,-0.38,0.15,-0.94,26.41,43.96,-59.71
89946,-0.73,1.95,-0.49,-0.39,0.15,-0.94,28.66,43.96,-59.71
89976,-0.79,1.95,-0.43,-0.38,0.15,-0.95,29.41,43.51,-60.47
90007,-0.79,1.83,-0.43,-0.39,0.15,-0.96,27.91,43.51,-59.41
90038,-0.73,1.83,-0.43,-0.39,0.15,-0.95,27.61,43.96,-60.47
90071,-0.73,1.89,-0.43,-0.38,0.14,-0.94,26.26,43.81,-61.07
90102,-0.79,1.95,-0.43,-0.39,0.15,-0.95,27.76,43.06,-60.02
90133,-0.73,1.89,-0.43,-0.39,0.14,-0.93,27.91,42.91,-61.22
90163,-0.79,1.89,-0.43,-0.38,0.15,-0.94,27.91,43.21,-60.17
90194,-0.79,1.89,-0.43,-0.38,0.15,-0.95,27.31,44.11,-59.26
90225,-0.79,1.83,-0.37,-0.39,0.14,-0.96,28.66,43.96,-59.71
90255,-0.73,1.89,-0.49,-0.39,0.16,-0.96,28.96,43.51,-59.71
90286,-0.79,1.89,-0.37,-0.39,0.15,-0.94,26.41,43.21,-59.41
90320,-0.79,1.83,-0.43,-0.4,0.15,-0.94,27.76,43.81,-59.26
90351,-0.79,1.95,-0.37,-0.39,0.14,-0.95,28.66,44.26,-59.71
90381,-0.73,1.83,-0.43,-0.39,0.14,-0.94,28.21,43.51,-61.22
90412,-0.73,1.89,-0.43,-0.38,0.16,-0.95,27.76,43.36,-60.32
90443,-0.73,1.83,-0.49,-0.39,0.15,-0.95,28.66,42.46,-60.47
90473,-0.79,1.89,-0.43,-0.38,0.16,-0.95,28.21,43.21,-59.71
90504,-0.73,1.95,-0.43,-0.39,0.15,-0.96,28.06,42.01,-59.56
90538,-0.79,1.83,-0.49,-0.4,0.15,-0.95,27.61,43.21,-61.22
90569,-0.73,1.95,-0.43,-0.39,0.15,-0.95,28.51,43.36,-60.62
90599,-0.73,1.95,-0.43,-0.39,0.15,-0.93,27.01,44.41,-60.02
90630,-0.79,1.89,-0.43,-0.38,0.15,-0.94,27.16,43.21,-60.47
90661,-0.73,1.65,-0.43,-0.4,0.14,-0.93,27.61,43.51,-59.41
90691,-0.79,1.83,-0.43,-0.39,0.14,-0.94,28.51,44.11,-59.26
90722,-0.79,1.89,-0.43,-0.39,0.16,-0.94,27.91,42.91,-60.77
90752,-0.85,1.77,-0.43,-0.38,0.16,-0.94,28.81,44.41,-59.26
90786,-0.73,1.95,-0.43,-0.39,0.15,-0.96,28.66,43.96,-60.17
90817,-0.73,1.89,-0.37,-0.38,0.16,-0.95,27.31,44.11,-61.37
90848,-0.79,1.83,-0.37,-0.39,0.14,-0.93,29.41,43.21,-60.47
90878,-0.73,1.89,-0.43,-0.4,0.15,-0.94,28.06,44.11,-58.96
90909,-0.79,1.95,-0.37,-0.39,0.15,-0.94,27.16,43.96,-60.17
90940,-0.79,2.01,-0.37,-0.39,0.14,-0.95,27.61,43.96,-59.11
90970,-0.85,1.83,-0.37,-0.39,0.15,-0.95,27.61,43.21,-59.41
91001,-0.73,1.89,-0.37,-0.38,0.16,-0.95,26.86,42.46,-60.77
91029,-0.73,1.77,-0.37,-0.38,0.15,-0.94,27.91,43.96,-59.71
91060,-0.73,1.77,-0.37,-0.39,0.16,-0.95,28.21,43.21,-59.71
91091,-0.79,1.83,-0.43,-0.38,0.15,-0.95,27.76,44.11,-60.32
91121,-0.73,1.89,-0.43,-0.38,0.15,-0.93,28.21,43.51,-59.11
91152,-0.73,1.77,-0.43,-0.39,0.15,-0.95,27.16,43.21,-60.17
91182,-0.79,1.89,-0.43,-0.39,0.14,-0.94,27.31,43.36,-59.26
91213,-0.79,1.95,-0.43,-0.38,0.15,-0.94,28.66,42.16,-60.17
91247,-0.79,1.83,-0.43,-0.39,0.15,-0.94,28.96,43.51,-61.22
91278,-0.73,1.95,-0.43,-0.39,0.15,-0.94,28.51,44.86,-61.07
91308,-0.79,1.83,-0.43,-0.39,0.15,-0.94,29.56,43.36,-61.07
91339,-0.73,1.83,-0.43,-0.39,0.14,-0.94,30.01,42.91,-62.27
91382,-0.79,1.83,-0.49,-0.39,0.15,-0.94,28.66,42.16,-59.71
91413,-0.73,1.89,-0.43,-0.38,0.16,-0.95,28.81,45.61,-60.62
91444,-0.73,1.83,-0.37,-0.39,0.15,-0.94,27.91,42.46,-60.17
91474,-0.73,1.89,-0.43,-0.39,0.15,-0.93,28.51,44.41,-59.56
91508,-0.73,1.83,-0.43,-0.39,0.14,-0.93,27.16,45.01,-61.22
91539,-0.73,1.95,-0.37,-0.39,0.15,-0.95,29.11,43.36,-60.32
91570,-0.79,1.95,-0.43,-0.38,0.15,-0.95,28.66,43.51,-60.47
91600,-0.79,1.83,-0.43,-0.39,0.15,-0.94,28.21,43.21,-61.52
91631,-0.79,1.89,-0.37,-0.38,0.15,-0.94,28.51,44.11,-58.21
91662,-0.79,1.83,-0.43,-0.39,0.14,-0.94,29.11,44.11,-61.37
91692,-0.73,1.89,-0.37,-0.39,0.14,-0.94,28.66,43.21,-59.71
91726,-0.79,1.89,-0.43,-0.39,0.15,-0.95,27.76,43.81,-60.32
91757,-0.79,1.89,-0.43,-0.39,0.15,-0.93,27.76,45.61,-60.62
91788,-0.79,1.83,-0.37,-0.39,0.16,-0.95,27.91,43.21,-60.47
91818,-0.79,1.89,-0.37,-0.38,0.16,-0.93,27.01,44.41,-62.12
91849,-0.79,1.89,-0.43,-0.39,0.15,-0.95,26.41,42.46,-59.71
91880,-0.79,1.89,-0.49,-0.39,0.15,-0.94,28.66,44.26,-60.17
91910,-0.73,1.83,-0.43,-0.39,0.16,-0.94,28.66,43.51,-61.22
91941,-0.79,1.89,-0.37,-0.39,0.14,-0.94,27.91,42.91,-61.22
91975,-0.79,1.83,-0.49,-0.39,0.15,-0.94,28.21,45.31,-59.11
92006,-0.79,1.83,-0.43,-0.39,0.16,-0.95,28.06,42.61,-60.62
92036,-0.79,1.89,-0.37,-0.39,0.14,-0.94,28.21,43.96,-61.22
92067,-0.79,1.89,-0.37,-0.38,0.15,-0.94,27.91,43.51,-59.71
92097,-0.73,1.89,-0.49,-0.38,0.15,-0.95,27.76,44.41,-62.42
92135,-0.73,1.77,-0.37,-0.38,0.14,-0.93,28.66,43.51,-59.71
92165,-0.79,1.95,-0.43,-0.38,0.15,-0.94,28.21,43.21,-60.77
92199,-0.79,1.89,-0.37,-0.38,0.14,-0.94,28.81,43.36,-60.62
92230,-0.79,1.83,-0.37,-0.39,0.15,-0.93,27.31,44.41,-61.07
92261,-0.73,1.83,-0.43,-0.39,0.15,-0.93,27.61,43.21,-59.71
92291,-0.73,1.83,-0.37,-0.39,0.15,-0.93,28.51,42.61,-59.26
92322,-0.73,1.89,-0.43,-0.39,0.15,-0.94,28.96,43.21,-60.77
92352,-0.73,1.95,-0.37,-0.39,0.15,-0.95,27.61,42.91,-61.52
92383,-0.79,1.89,-0.37,-0.39,0.16,-0.94,28.21,43.21,-60.77
92414,-0.79,1.83,-0.43,-0.39,0.14,-0.93,28.66,43.51,-60.47
92448,-0.73,1.89,-0.37,-0.38,0.15,-0.94,28.51,44.41,-60.32
92478,-0.79,1.83,-0.37,-0.39,0.15,-0.94,27.16,43.21,-59.11
92509,-0.79,1.89,-0.43,-0.39,0.15,-0.95,28.06,42.01,-61.37
92540,-0.73,1.89,-0.49,-0.39,0.14,-0.95,29.56,44.41,-60.62
92570,-0.73,1.77,-0.37,-0.38,0.15,-0.95,28.21,44.26,-59.71
92601,-0.79,1.83,-0.43,-0.39,0.15,-0.94,28.51,42.31,-60.62
92632,-0.73,1.83,-0.37,-0.39,0.14,-0.96,27.31,43.06,-60.32
92666,-0.79,1.83,-0.43,-0.38,0.15,-0.93,27.76,43.06,-59.26
92696,-0.79,1.83,-0.37,-0.39,0.15,-0.93,27.91,44.26,-60.17
92727,-0.79,1.89,-0.43,-0.38,0.14,-0.94,27.16,42.46,-60.47
92758,-0.79,1.77,-0.43,-0.39,0.15,-0.94,29.56,44.11,-60.62
92788,-0.79,1.83,-0.43,-0.39,0.16,-0.96,27.61,43.21,-59.41
92819,-0.73,1.95,-0.37,-0.39,0.16,-0.94,27.91,41.71,-59.71
92850,-0.79,1.83,-0.49,-0.39,0.15,-0.94,27.16,43.51,-59.71
92880,-0.85,1.83,-0.43,-0.39,0.16,-0.94,28.06,43.81,-61.07
92914,-0.79,1.89,-0.37,-0.39,0.14,-0.94,27.91,44.71,-60.77
92945,-0.73,1.89,-0.43,-0.4,0.16,-0.93,27.91,43.96,-59.71
92975,-0.73,1.89,-0.43,-0.39,0.15,-0.94,28.51,44.41,-61.07
93006,-0.79,1.83,-0.43,-0.39,0.16,-0.95,27.61,43.96,-60.47
93037,-0.73,1.83,-0.43,-0.39,0.14,-0.93,28.66,43.51,-59.41
93067,-0.73,1.89,-0.43,-0.39,0.15,-0.94,28.51,44.11,-60.02
93098,-0.73,1.77,-0.43,-0.39,0.15,-0.95,27.01,43.81,-58.51
93132,-0.79,1.89,-0.43,-0.39,0.15,-0.93,28.51,43.36,-61.67
