Timestamp,Gyroscope X (deg/s),Gyroscope Y (deg/s),Gyroscope Z (deg/s),Accelerometer X (g),Accelerometer Y (g),Accelerometer Z (g),Magnetometer X (G),Magnetometer Y (G),Magnetometer Z (G)
4318,-0.67,-2.5,0.18,0.19,0.22,-1.02,622.42,416.38,-189.58
4329,-1.04,-2.01,0.37,0.2,0.22,-1.0,618.07,418.88,-198.75
4358,-0.98,-2.32,0.24,0.2,0.23,-1.01,608.12,393.12,-194.18
4369,-0.85,-2.07,0.43,0.2,0.22,-1.02,621.24,398.66,-186.18
4398,-0.98,-2.32,0.24,0.2,0.22,-1.02,604.8,418.89,-205.22
4409,-0.79,-2.13,0.24,0.2,0.23,-1.02,621.3,410.37,-204.43
4438,-0.98,-2.2,0.3,0.2,0.23,-1.0,611.05,402.36,-203.23
4449,-0.79,-2.26,0.18,0.19,0.23,-1.02,614.03,410.17,-213.65
4478,-0.98,-2.26,0.3,0.19,0.22,-1.02,606.48,401.36,-195.2
4489,-0.98,-2.13,0.3,0.19,0.21,-1.01,631.6,407.76,-195.34
4518,-0.98,-2.2,0.24,0.2,0.22,-1.01,597.52,406.89,-198.88
4529,-0.91,-2.07,0.37,0.2,0.22,-1.01,609.54,401.11,-200.58
4558,-0.98,-2.26,0.3,0.19,0.22,-1.01,617.13,391.43,-198.37
4569,-0.98,-2.2,0.24,0.19,0.22,-1.0,609.32,405.53,-192.43
4598,-0.98,-2.2,0.3,0.19,0.23,-1.0,614.01,398.37,-198.08
4609,-0.91,-2.13,0.3,0.2,0.22,-1.0,615.2,409.5,-193.71
4638,-0.98,-2.26,0.3,0.2,0.22,-1.01,597.51,402.96,-193.68
4649,-0.98,-2.2,0.3,0.2,0.22,-1.01,626.95,421.41,-200.12
4678,-0.91,-2.2,0.24,0.19,0.23,-1.01,622.71,402.62,-190.06
4689,-0.98,-2.32,0.3,0.2,0.23,-1.0,630.28,406.12,-203.37
4718,-0.91,-2.26,0.18,0.19,0.22,-1.03,616.89,405.09,-200.55
4729,-1.04,-2.26,0.37,0.2,0.22,-1.0,615.29,409.3,-199.05
4758,-0.91,-2.2,0.18,0.19,0.22,-1.01,627.44,400.62,-204.86
4769,-0.91,-2.13,0.24,0.19,0.22,-1.02,624.4,400.82,-200.81
4798,-0.79,-2.2,0.3,0.21,0.22,-1.01,613.42,415.42,-182.82
4809,-0.98,-2.13,0.37,0.2,0.22,-1.01,625.6,406.69,-189.96
4838,-0.98,-2.2,0.43,0.19,0.22,-1.01,607.85,402.9,-189.84
4849,-1.04,-2.13,0.24,0.21,0.21,-1.01,613.97,398.46,-195.41
4878,-0.98,-2.32,0.3,0.2,0.22,-1.01,618.19,415.98,-202.85
4889,-0.91,-2.2,0.3,0.19,0.22,-1.01,623.09,396.53,-206.27
4998,-0.85,-2.13,0.24,0.2,0.21,-1.01,615.19,406.89,-189.81
5009,-0.91,-2.2,0.18,0.2,0.22,-1.0,622.53,406.94,-184.58
5038,-0.98,-2.26,0.12,0.2,0.23,-1.0,616.77,410.6,-200.36
5049,-0.91,-2.2,0.24,0.2,0.21,-1.0,633.19,408.81,-203.32
5078,-1.04,-2.26,0.3,0.2,0.22,-1.01,616.58,408.38,-185.78
5089,-0.91,-2.32,0.24,0.2,0.23,-1.01,608.03,406.45,-205.7
5118,-0.98,-2.26,0.37,0.21,0.23,-1.0,610.69,407.07,-187.07
5129,-0.98,-2.2,0.3,0.2,0.22,-1.01,616.93,401.06,-198.03
5158,-0.98,-2.2,0.24,0.2,0.22,-1.02,622.59,413.39,-196.35
5169,-1.1,-2.2,0.37,0.2,0.22,-1.02,616.93,401.06,-198.03
5198,-1.04,-2.26,0.3,0.19,0.23,-1.01,618.08,416.22,-196.18
5209,-0.91,-2.2,0.24,0.19,0.23,-1.01,605.14,393.18,-194.14
5238,-0.91,-2.38,0.24,0.2,0.22,-1.01,624.47,400.68,-204.81
5249,-0.85,-2.2,0.43,0.2,0.23,-1.02,613.64,421.52,-203.92
5278,-0.85,-2.32,0.37,0.2,0.22,-1.01,616.74,408.04,-195.12
5289,-0.98,-2.2,0.18,0.19,0.23,-1.02,622.79,409.01,-203.16
5318,-0.98,-2.2,0.3,0.2,0.22,-1.01,621.15,408.05,-192.51
5329,-0.98,-2.2,0.24,0.2,0.22,-1.01,610.99,399.85,-196.65
5358,-0.91,-2.26,0.37,0.2,0.22,-1.02,625.45,409.64,-184.53
5369,-0.91,-2.26,0.18,0.19,0.23,-1.01,607.88,406.79,-196.36
5398,-0.85,-2.13,0.3,0.2,0.22,-1.01,609.12,415.17,-192.09
5409,-0.98,-2.26,0.3,0.19,0.22,-1.01,615.32,413.19,-205.57
5438,-0.85,-2.2,0.24,0.2,0.22,-1.01,616.41,411.38,-179.01
5449,-0.98,-2.2,0.37,0.2,0.23,-1.01,626.99,417.38,-197.6
5478,-0.91,-2.2,0.37,0.2,0.23,-1.01,609.41,405.34,-197.77
5489,-0.85,-2.13,0.24,0.2,0.21,-1.0,618.61,392.73,-199.68
5518,-0.79,-2.26,0.24,0.19,0.23,-1.01,610.93,402.6,-196.56
5529,-0.91,-2.13,0.37,0.2,0.22,-1.01,624.23,405.15,-195.33
5558,-0.98,-2.2,0.24,0.19,0.22,-1.01,624.17,407.9,-195.23
5629,-0.98,-2.26,0.24,0.2,0.23,-1.01,618.38,399.8,-194.1
5639,-0.79,-2.2,0.3,0.19,0.23,-1.01,634.87,400.48,-204.97
5668,-1.04,-2.26,0.37,0.19,0.22,-1.02,610.93,402.6,-196.56
5679,-0.85,-2.26,0.3,0.2,0.22,-1.02,615.69,386.1,-194.54
5708,-0.98,-2.13,0.3,0.2,0.23,-1.01,613.86,407.91,-200.41
5719,-0.91,-2.26,0.24,0.19,0.23,-1.0,625.37,422.96,-196.05
5748,-0.98,-2.13,0.3,0.2,0.22,-1.0,621.14,410.71,-195.09
5759,-1.04,-2.2,0.24,0.2,0.22,-1.01,621.57,394.0,-201.01
5788,-0.85,-2.2,0.24,0.2,0.21,-1.01,615.41,409.06,-205.72
5799,-0.85,-2.13,0.24,0.19,0.23,-1.0,606.38,408.15,-197.63
5828,-0.91,-2.26,0.3,0.2,0.23,-1.01,616.88,401.16,-195.36
5839,-0.91,-2.13,0.3,0.19,0.22,-1.01,609.21,411.04,-192.24
5868,-0.79,-2.13,0.24,0.19,0.22,-1.01,613.67,414.89,-197.5
5879,-1.04,-2.26,0.3,0.19,0.23,-1.01,615.14,409.64,-189.71
5908,-1.04,-2.26,0.3,0.19,0.22,-1.02,634.66,398.31,-189.06
5919,-1.04,-2.13,0.37,0.2,0.22,-1.01,634.82,397.97,-198.4
5948,-0.98,-2.2,0.18,0.2,0.22,-1.02,615.25,409.4,-196.38
5959,-0.98,-2.13,0.24,0.19,0.22,-1.01,615.56,399.52,-203.39
5988,-0.98,-2.13,0.3,0.2,0.23,-1.01,609.27,408.28,-192.34
5999,-0.91,-2.26,0.3,0.19,0.21,-1.01,600.29,416.47,-198.58
6028,-0.91,-2.13,0.24,0.2,0.22,-1.01,621.15,414.65,-200.28
6039,-0.91,-2.2,0.18,0.2,0.23,-1.01,605.15,402.38,-205.81
6068,-0.91,-2.26,0.37,0.19,0.23,-1.02,609.32,405.53,-192.43
6079,-0.98,-2.13,0.3,0.2,0.22,-1.01,615.08,422.92,-202.56
6108,-0.91,-2.26,0.37,0.2,0.22,-1.01,606.09,417.98,-191.95
6119,-0.91,-2.2,0.37,0.2,0.22,-1.01,610.69,407.07,-187.07
6148,-0.98,-2.32,0.37,0.19,0.22,-1.01,627.16,414.38,-204.37
6159,-0.79,-2.2,0.24,0.2,0.22,-1.01,624.4,400.82,-200.81
6188,-0.91,-2.2,0.24,0.19,0.22,-1.02,618.39,406.35,-203.19
6259,-0.91,-2.26,0.12,0.2,0.22,-1.01,617.97,416.47,-189.51
6269,-0.85,-2.26,0.3,0.2,0.22,-1.01,627.09,410.6,-195.18
6298,-0.91,-2.2,0.24,0.2,0.22,-1.0,616.61,421.47,-203.97
6309,-0.85,-2.26,0.37,0.21,0.22,-1.01,606.37,410.8,-200.2
6338,-0.79,-2.32,0.3,0.2,0.22,-1.01,606.55,405.15,-204.4
6349,-0.98,-2.13,0.24,0.2,0.22,-1.01,609.21,405.77,-185.76
6378,-0.91,-2.2,0.37,0.19,0.22,-1.01,627.04,410.69,-192.51
6389,-1.04,-2.2,0.24,0.19,0.22,-1.02,610.75,409.58,-193.64
6418,-0.91,-2.26,0.12,0.19,0.22,-1.01,622.72,409.16,-199.16
6429,-0.98,-2.26,0.24,0.2,0.21,-1.01,606.4,405.49,-195.06
6458,-0.98,-2.26,0.37,0.19,0.22,-1.01,618.42,408.9,-208.43
6469,-0.91,-2.2,0.12,0.19,0.22,-0.99,609.56,407.65,-209.68
6498,-0.91,-2.13,0.24,0.2,0.22,-1.0,624.36,400.92,-198.14
6509,-0.98,-2.13,0.37,0.2,0.24,-1.02,615.61,399.42,-206.06
6538,-0.91,-2.26,0.18,0.2,0.23,-1.02,622.54,416.14,-196.25
6549,-1.04,-2.13,0.3,0.19,0.22,-1.01,624.32,404.95,-200.66
6578,-0.85,-2.2,0.37,0.2,0.22,-1.01,602.02,401.45,-195.14
6589,-1.04,-2.2,0.37,0.19,0.22,-1.0,591.54,405.77,-194.83
6618,-0.91,-2.2,0.37,0.2,0.21,-1.0,613.67,414.89,-197.5
6629,-0.98,-2.2,0.18,0.2,0.22,-1.0,624.11,410.65,-195.13
6658,-0.98,-2.2,0.18,0.2,0.24,-1.01,616.74,417.24,-206.78
6669,-0.98,-2.26,0.3,0.2,0.23,-1.01,618.28,406.59,-196.52
6698,-0.91,-2.13,0.37,0.19,0.23,-1.01,620.69,427.47,-187.83
6709,-0.85,-2.2,0.37,0.19,0.23,-1.01,618.14,413.47,-196.28
6738,-0.79,-2.26,0.3,0.19,0.22,-1.01,618.36,402.46,-196.67
6749,-1.1,-2.13,0.37,0.2,0.22,-1.01,607.77,409.64,-193.6
6778,-1.04,-2.26,0.3,0.2,0.22,-1.01,622.78,402.47,-194.07
6789,-0.91,-2.2,0.3,0.19,0.22,-1.02,606.39,417.34,-209.3
6818,-0.98,-2.13,0.24,0.19,0.23,-1.01,610.89,406.63,-199.08
6889,-0.98,-2.32,0.3,0.2,0.23,-1.02,621.29,407.76,-200.52
6899,-1.04,-2.13,0.18,0.19,0.23,-1.02,600.36,416.32,-202.58
6928,-0.98,-2.13,0.37,0.2,0.22,-1.0,604.86,406.94,-193.65
6939,-0.91,-2.13,0.18,0.19,0.22,-1.0,622.49,416.24,-193.58
6968,-0.91,-2.13,0.24,0.19,0.22,-1.01,613.98,405.01,-204.51
6979,-0.91,-2.26,0.3,0.19,0.23,-1.0,621.43,400.88,-200.76
7008,-0.85,-2.07,0.3,0.2,0.22,-1.01,627.13,410.5,-197.84
7019,-0.98,-2.26,0.12,0.2,0.21,-1.0,610.98,402.5,-199.22
7048,-0.98,-2.13,0.3,0.2,0.22,-1.01,609.34,421.27,-213.2
7059,-0.91,-2.2,0.3,0.2,0.22,-0.99,613.72,414.79,-200.16
7088,-0.85,-2.2,0.24,0.2,0.22,-1.0,610.71,413.61,-196.17
7099,-0.91,-2.26,0.18,0.2,0.21,-1.01,610.94,397.34,-190.08
7128,-0.98,-2.07,0.3,0.19,0.22,-1.0,621.2,407.96,-195.18
7139,-0.91,-2.26,0.37,0.19,0.22,-1.01,609.56,398.45,-198.01
7168,-0.91,-2.13,0.3,0.19,0.23,-1.01,611.16,396.85,-203.42
7179,-0.98,-2.2,0.24,0.2,0.22,-1.02,615.19,406.89,-189.81
7208,-1.04,-2.26,0.24,0.19,0.22,-1.01,609.51,407.75,-207.01
7219,-0.91,-2.26,0.18,0.19,0.23,-1.0,611.16,396.85,-203.42
7248,-0.85,-2.2,0.24,0.19,0.22,-1.0,622.98,402.03,-206.08
7259,-0.91,-2.26,0.3,0.2,0.22,-1.01,634.56,410.36,-197.96
7288,-0.91,-2.2,0.18,0.2,0.22,-1.01,622.69,415.8,-205.59
7299,-0.91,-2.07,0.37,0.2,0.23,-1.01,609.31,398.99,-183.34
7328,-0.98,-2.13,0.3,0.19,0.21,-1.0,616.68,401.6,-183.35
7339,-0.98,-2.26,0.3,0.2,0.22,-1.0,609.45,401.3,-195.25
7368,-0.79,-2.26,0.12,0.19,0.23,-1.01,624.07,410.75,-192.46
7379,-0.91,-2.2,0.43,0.2,0.22,-1.02,615.28,402.76,-189.95
7408,-0.91,-2.26,0.3,0.2,0.23,-1.0,630.12,406.46,-194.03
7419,-0.91,-2.26,0.24,0.2,0.21,-1.01,606.12,411.34,-185.52
7448,-0.85,-2.26,0.3,0.19,0.22,-1.0,610.95,409.14,-205.65
7518,-0.91,-2.2,0.18,0.21,0.23,-1.02,617.97,416.47,-189.51
7529,-0.91,-2.2,0.37,0.19,0.23,-1.02,610.96,406.49,-203.08
7558,-0.79,-2.26,0.24,0.2,0.21,-1.0,615.1,407.09,-184.47
7569,-0.85,-2.13,0.3,0.19,0.22,-1.01,615.42,406.4,-203.15
7598,-0.79,-2.2,0.24,0.2,0.21,-1.01,621.3,401.17,-192.76
7609,-0.91,-2.2,0.24,0.2,0.22,-1.01,614.11,400.78,-207.32
7638,-0.98,-2.26,0.12,0.19,0.24,-1.01,613.94,394.58,-188.89
7649,-0.91,-2.2,0.3,0.2,0.22,-1.01,624.26,407.71,-200.57
7678,-0.91,-2.2,0.3,0.2,0.22,-1.02,622.72,409.16,-199.16
7689,-0.91,-2.26,0.24,0.19,0.22,-1.02,616.69,414.73,-200.21
7718,-0.91,-2.2,0.43,0.2,0.22,-1.0,618.29,413.13,-205.62
7729,-0.85,-2.26,0.3,0.2,0.22,-1.0,627.49,400.52,-207.53
7758,-0.91,-2.13,0.24,0.19,0.22,-1.02,613.67,410.95,-192.3
7769,-0.85,-2.2,0.3,0.2,0.21,-1.01,615.06,416.38,-193.47
7798,-0.91,-2.26,0.24,0.2,0.22,-1.01,611.05,397.1,-196.75
7809,-0.91,-2.13,0.37,0.19,0.23,-1.01,606.35,414.78,-204.06
7838,-0.91,-2.32,0.3,0.2,0.23,-1.01,615.41,409.06,-205.72
7849,-0.91,-2.13,0.18,0.19,0.23,-1.0,618.03,416.32,-193.51
7878,-1.04,-2.13,0.43,0.2,0.22,-1.02,615.45,408.96,-208.39
7889,-0.85,-2.32,0.37,0.2,0.21,-1.01,602.07,401.35,-197.8
7918,-0.98,-2.2,0.24,0.2,0.22,-1.01,600.2,416.66,-193.24
7929,-0.91,-2.2,0.3,0.19,0.23,-1.02,623.07,392.64,-199.75
7958,-0.98,-2.2,0.18,0.19,0.23,-1.0,607.92,406.69,-199.03
7969,-0.91,-2.26,0.18,0.19,0.22,-1.01,621.09,417.4,-200.18
7998,-0.98,-2.13,0.3,0.19,0.23,-1.0,614.9,416.72,-184.13
8009,-0.85,-2.26,0.24,0.2,0.22,-1.01,616.64,414.83,-197.54
8038,-0.85,-2.26,0.3,0.2,0.22,-1.01,604.75,416.38,-198.65
8049,-0.91,-2.32,0.18,0.2,0.23,-1.01,624.27,410.31,-204.47
8078,-0.85,-2.2,0.37,0.2,0.22,-1.01,618.31,399.95,-190.09
8149,-0.91,-2.01,0.3,0.2,0.22,-1.02,606.71,394.28,-200.78
8159,-0.98,-2.13,0.3,0.2,0.22,-1.0,615.46,397.11,-194.15
8188,-0.91,-2.2,0.3,0.2,0.22,-1.02,606.64,401.02,-204.54
8199,-0.98,-2.26,0.3,0.19,0.22,-1.02,604.94,402.81,-193.8
8228,-1.04,-2.32,0.37,0.2,0.22,-0.99,613.83,405.35,-195.17
8228,-1.04,-2.32,0.37,0.2,0.22,-1.02,245.89,770.42,165.27
8273,-0.91,-2.13,0.24,0.19,0.23,-1.01,616.7,408.14,-192.45
8288,-0.91,-2.13,0.24,0.2,0.23,-1.01,607.79,416.18,-202.69
8303,-0.98,-2.26,0.37,0.19,0.22,-1.02,608.06,399.81,-199.28
8332,-1.04,-2.2,0.3,0.2,0.22,-1.01,625.72,412.99,-205.73
8343,-0.79,-2.26,0.37,0.2,0.22,-0.99,624.39,404.81,-204.67
8372,-0.85,-2.26,0.24,0.2,0.23,-1.01,615.19,402.96,-184.61
8383,-0.98,-2.2,0.37,0.2,0.22,-1.01,625.75,406.35,-199.3
8412,-0.85,-2.2,0.3,0.2,0.22,-1.02,604.81,413.63,-198.74
8423,-1.04,-2.26,0.18,0.19,0.23,-1.01,606.29,408.34,-192.29
8452,-0.98,-2.2,0.3,0.19,0.21,-1.01,624.26,398.51,-188.9
8463,-0.98,-2.2,0.18,0.19,0.22,-1.01,618.34,413.03,-208.29
8492,-0.79,-2.13,0.3,0.19,0.22,-1.0,604.99,402.72,-196.47
8503,-0.85,-2.13,0.3,0.19,0.22,-1.02,630.02,413.24,-196.46
8532,-1.04,-2.2,0.3,0.2,0.22,-1.01,613.8,410.66,-200.31
8543,-0.91,-2.13,0.37,0.2,0.22,-1.01,622.72,409.16,-199.16
8572,-0.98,-2.32,0.3,0.21,0.21,-1.01,621.54,400.64,-207.44
8583,-0.98,-2.2,0.37,0.2,0.23,-1.02,598.81,415.17,-197.27
8612,-0.91,-2.32,0.24,0.2,0.22,-1.02,618.23,406.69,-193.85
8623,-1.04,-2.2,0.24,0.2,0.23,-1.0,624.27,405.05,-197.99
8652,-0.91,-2.2,0.43,0.2,0.22,-1.01,615.22,416.04,-202.81
8663,-0.91,-2.2,0.24,0.19,0.23,-1.02,615.31,406.65,-196.48
8692,-0.91,-2.13,0.24,0.2,0.22,-1.0,621.3,414.3,-209.62
8703,-0.91,-2.2,0.18,0.2,0.22,-1.01,606.64,401.02,-204.54
8773,-0.98,-2.07,0.3,0.19,0.22,-1.01,622.51,422.78,-202.68
8789,-0.91,-2.2,0.3,0.2,0.22,-1.01,623.14,401.69,-215.42
8804,-0.79,-2.2,0.24,0.2,0.23,-1.0,618.37,397.2,-190.19
8833,-0.79,-2.2,0.37,0.19,0.23,-1.0,617.27,393.74,-210.28
8844,-0.98,-2.13,0.49,0.19,0.23,-1.01,615.31,406.65,-196.48
8873,-1.04,-2.26,0.18,0.2,0.23,-1.01,610.65,407.17,-184.4
8884,-0.85,-2.13,0.18,0.2,0.22,-1.01,613.8,410.66,-200.31
8913,-0.98,-2.26,0.24,0.19,0.21,-1.01,625.61,409.3,-193.87
8924,-0.85,-2.2,0.24,0.2,0.22,-1.01,629.91,418.75,-196.26
8953,-0.85,-2.2,0.24,0.2,0.23,-1.0,606.33,410.9,-197.53
8964,-0.98,-2.13,0.24,0.2,0.21,-1.0,621.3,401.17,-192.76
8993,-0.85,-2.2,0.3,0.2,0.22,-1.02,609.67,398.21,-204.69
9004,-0.91,-2.2,0.12,0.2,0.23,-1.02,613.8,410.66,-200.31
9033,-1.04,-2.2,0.3,0.2,0.23,-1.02,609.5,401.21,-197.92
9044,-0.85,-2.26,0.18,0.2,0.22,-1.0,615.4,399.86,-194.05
9073,-0.91,-2.13,0.3,0.2,0.22,-1.0,632.05,397.59,-210.36
9084,-0.98,-2.2,0.24,0.2,0.23,-1.0,621.34,401.07,-195.43
9113,-0.91,-2.2,0.37,0.2,0.23,-1.01,618.41,402.36,-199.34
9124,-0.85,-2.32,0.37,0.2,0.22,-1.01,607.73,418.93,-202.6
9153,-0.91,-2.2,0.3,0.19,0.22,-1.01,613.83,405.35,-195.17
9164,-0.98,-2.2,0.18,0.19,0.22,-1.01,613.75,401.56,-185.97
9193,-0.98,-2.26,0.24,0.19,0.23,-1.01,624.22,407.8,-197.9
9204,-0.98,-2.26,0.3,0.19,0.22,-1.02,610.8,406.83,-193.74
9233,-1.1,-2.2,0.37,0.2,0.23,-1.0,622.53,418.79,-198.82
9244,-1.04,-2.13,0.24,0.2,0.22,-1.02,621.34,401.07,-195.43
9273,-1.1,-2.13,0.3,0.2,0.23,-1.02,611.04,399.75,-199.32
9284,-1.04,-2.2,0.24,0.19,0.22,-1.01,624.27,401.12,-192.8
9313,-0.91,-2.2,0.18,0.2,0.22,-1.01,613.71,410.85,-194.97
9324,-0.91,-2.2,0.24,0.2,0.22,-1.01,638.99,407.71,-192.78
9394,-0.91,-2.26,0.3,0.2,0.22,-1.0,609.31,408.19,-195.0
9410,-0.91,-2.26,0.24,0.21,0.22,-1.01,598.95,408.29,-197.51
9429,-0.79,-2.38,0.24,0.2,0.23,-1.0,636.2,402.12,-196.94
9449,-0.91,-2.26,0.24,0.2,0.23,-1.01,618.38,399.8,-194.1
9469,-0.98,-2.2,0.3,0.19,0.23,-1.01,624.22,407.8,-197.9
9489,-0.98,-2.32,0.3,0.21,0.22,-1.01,601.9,414.87,-203.99
9509,-0.98,-2.26,0.3,0.2,0.22,-1.01,618.38,399.8,-194.1
9529,-0.85,-2.2,0.3,0.2,0.23,-1.0,618.36,402.46,-196.67
9549,-0.91,-2.26,0.3,0.2,0.23,-1.0,631.61,405.1,-192.77
9569,-0.91,-2.13,0.43,0.19,0.22,-1.01,618.43,397.05,-194.19
9589,-0.91,-2.32,0.43,0.19,0.22,-1.01,600.89,392.82,-206.08
9609,-1.04,-2.2,0.43,0.2,0.23,-1.01,609.41,405.34,-197.77
9629,-0.91,-2.32,0.24,0.2,0.22,-1.01,610.84,409.39,-198.98
9649,-0.98,-2.13,0.3,0.19,0.22,-0.99,618.59,396.71,-203.53
9669,-1.04,-2.2,0.3,0.19,0.22,-1.01,609.15,408.53,-185.66
9689,-0.91,-2.2,0.18,0.2,0.23,-1.01,613.92,405.15,-200.51
9709,-0.85,-2.26,0.24,0.2,0.21,-1.02,610.29,426.34,-186.39
9729,-1.04,-2.26,0.18,0.2,0.21,-1.0,634.56,410.36,-197.96
9749,-0.98,-2.13,0.37,0.2,0.22,-1.02,624.26,407.71,-200.57
9769,-0.91,-2.2,0.18,0.2,0.22,-1.01,615.45,399.76,-196.72
9789,-0.91,-2.26,0.37,0.2,0.23,-1.01,625.79,402.32,-196.78
9809,-1.1,-2.2,0.18,0.19,0.22,-1.01,615.05,419.03,-196.04
9829,-0.98,-2.26,0.24,0.19,0.23,-1.0,624.07,410.75,-192.46
9849,-0.98,-2.2,0.37,0.2,0.23,-1.02,615.45,399.76,-196.72
9869,-0.85,-2.2,0.24,0.19,0.23,-1.01,600.69,397.2,-199.26
9889,-1.1,-2.2,0.43,0.2,0.22,-1.01,615.31,406.65,-196.48
9909,-0.91,-2.13,0.3,0.2,0.22,-1.02,618.01,407.17,-180.51
9929,-1.04,-2.2,0.3,0.19,0.23,-1.01,611.05,397.1,-196.75
9949,-0.98,-2.2,0.24,0.2,0.22,-1.0,613.93,407.76,-204.41
10020,-0.98,-2.13,0.3,0.2,0.22,-1.0,607.99,406.55,-203.04
10031,-0.73,-2.13,0.3,0.2,0.21,-1.02,611.1,399.61,-203.32
10054,-0.91,-2.13,0.24,0.2,0.23,-1.02,609.17,415.07,-194.76
10074,-0.91,-2.2,0.37,0.2,0.22,-1.01,618.44,406.25,-205.86
10094,-0.98,-2.26,0.12,0.2,0.21,-1.01,606.44,410.65,-204.2
10114,-0.98,-2.13,0.24,0.21,0.22,-1.01,618.32,406.49,-199.19
10134,-0.85,-2.13,0.3,0.2,0.22,-1.01,621.37,394.44,-189.0
10154,-0.98,-2.26,0.18,0.2,0.22,-1.0,618.58,390.17,-194.44
10174,-0.85,-2.13,0.49,0.2,0.22,-1.01,615.35,402.61,-193.95
10194,-0.91,-2.2,0.3,0.19,0.22,-1.02,618.43,397.05,-194.19
10214,-0.91,-2.2,0.18,0.2,0.21,-1.0,621.43,400.88,-200.76
10234,-0.98,-2.2,0.24,0.2,0.22,-1.01,625.82,406.2,-203.31
10254,-0.85,-2.13,0.24,0.2,0.22,-1.01,604.89,409.5,-198.89
10274,-1.04,-2.13,0.37,0.2,0.23,-1.02,604.66,416.58,-193.31
10294,-0.91,-2.07,0.24,0.2,0.22,-1.01,610.8,406.83,-193.74
10314,-0.85,-2.13,0.24,0.2,0.22,-1.01,626.07,396.47,-206.32
10334,-0.85,-2.2,0.24,0.2,0.22,-1.0,630.17,415.56,-208.37
10354,-0.79,-2.2,0.37,0.2,0.22,-1.02,624.18,405.24,-192.66
10374,-0.98,-2.26,0.18,0.19,0.22,-1.01,600.2,416.66,-193.24
10394,-0.85,-2.2,0.24,0.19,0.23,-1.01,616.79,407.95,-197.78
10414,-0.98,-2.2,0.24,0.2,0.22,-1.01,613.57,417.74,-194.73
10434,-0.98,-2.32,-0.0,0.19,0.22,-1.01,622.72,409.16,-199.16
10454,-0.98,-2.2,0.3,0.2,0.23,-1.01,624.23,405.15,-195.33
10474,-0.98,-2.26,0.3,0.2,0.22,-1.0,630.17,406.36,-196.7
10494,-0.98,-2.2,0.24,0.2,0.22,-1.02,615.59,402.08,-208.63
10514,-1.04,-2.26,0.24,0.2,0.22,-1.02,606.44,405.39,-197.72
10534,-0.91,-2.2,0.43,0.19,0.23,-1.0,618.28,406.59,-196.52
10554,-0.91,-2.2,0.43,0.2,0.22,-1.0,617.14,397.97,-207.47
10574,-0.98,-2.13,0.3,0.2,0.23,-1.0,621.45,407.42,-209.86
10645,-1.04,-2.32,0.43,0.19,0.22,-1.01,618.08,416.22,-196.18
10660,-0.85,-2.2,0.18,0.21,0.22,-1.01,616.59,417.58,-197.44
10675,-0.79,-2.13,0.37,0.19,0.22,-1.01,615.26,406.74,-193.81
10704,-0.98,-2.26,0.3,0.2,0.22,-1.01,626.11,392.44,-203.79
10715,-0.91,-2.32,0.37,0.2,0.21,-1.02,616.97,400.97,-200.7
10744,-0.91,-2.13,0.24,0.2,0.22,-1.01,625.7,409.1,-199.21
10755,-0.91,-2.2,0.3,0.2,0.22,-1.01,616.8,405.29,-195.21
10784,-0.85,-2.13,0.3,0.2,0.22,-1.0,607.67,407.23,-184.36
10795,-1.04,-2.2,0.43,0.2,0.22,-1.01,609.26,414.87,-200.1
10824,-0.91,-2.26,0.24,0.2,0.22,-1.01,621.19,410.61,-197.75
10835,-0.98,-2.2,0.3,0.2,0.22,-1.01,613.98,405.01,-204.51
10864,-0.98,-2.2,0.37,0.2,0.22,-1.02,618.11,409.59,-189.75
10875,-0.85,-2.13,0.3,0.2,0.21,-1.01,610.99,409.05,-208.32
10904,-0.85,-2.26,0.37,0.2,0.21,-1.0,617.05,404.75,-209.89
10915,-1.04,-2.32,0.18,0.2,0.22,-1.02,633.08,409.06,-196.65
10944,-0.91,-2.2,0.3,0.2,0.22,-1.02,607.92,406.69,-199.03
10955,-0.91,-2.2,0.18,0.2,0.23,-1.01,622.88,399.62,-196.83
10984,-1.04,-2.2,0.3,0.2,0.22,-1.0,608.42,385.9,-203.77
10995,-0.91,-2.2,0.37,0.19,0.22,-1.01,618.03,416.32,-193.51
11024,-0.85,-2.26,0.43,0.19,0.22,-1.01,625.65,409.2,-196.54
11035,-0.98,-2.2,0.3,0.2,0.22,-1.02,616.58,408.38,-185.78
11064,-0.85,-2.13,0.37,0.2,0.22,-1.01,615.42,406.4,-203.15
11075,-0.85,-2.2,0.3,0.19,0.23,-1.02,624.2,410.46,-200.47
11104,-0.91,-2.26,0.18,0.2,0.22,-1.03,625.32,423.06,-193.38
11115,-0.85,-2.07,0.3,0.2,0.22,-1.0,613.86,407.91,-200.41
11144,-1.04,-2.32,0.43,0.19,0.22,-1.0,626.02,396.57,-203.65
11155,-0.91,-2.2,0.3,0.2,0.23,-1.01,615.29,400.1,-187.38
11184,-0.91,-2.13,0.3,0.2,0.22,-1.02,621.23,410.52,-200.42
11195,-0.98,-2.13,0.24,0.2,0.22,-1.01,631.46,414.64,-195.1
11265,-0.91,-2.26,0.24,0.19,0.22,-1.02,626.97,410.84,-188.5
11281,-0.91,-2.26,0.24,0.19,0.23,-1.01,599.25,401.06,-207.1
11296,-1.04,-2.13,0.24,0.2,0.22,-1.03,609.14,411.18,-188.23
11325,-0.79,-2.32,0.37,0.2,0.22,-1.02,616.84,410.45,-204.36
11336,-1.04,-2.13,0.37,0.19,0.23,-1.0,600.49,406.83,-198.92
11365,-1.04,-2.13,0.37,0.2,0.23,-1.02,625.6,406.69,-189.96
11376,-1.04,-2.26,0.24,0.2,0.22,-1.02,606.49,405.29,-200.39
11405,-0.98,-2.13,0.3,0.2,0.22,-1.01,616.98,394.38,-192.93
11416,-0.91,-2.26,0.24,0.2,0.23,-1.01,610.85,406.73,-196.41
11445,-0.85,-2.13,0.18,0.2,0.23,-1.02,615.2,409.5,-193.71
11456,-0.85,-2.26,0.3,0.2,0.22,-1.01,618.28,406.59,-196.52
11485,-0.85,-2.26,0.18,0.19,0.22,-1.0,618.02,413.72,-189.61
11496,-0.85,-2.32,0.24,0.19,0.22,-1.01,605.09,399.87,-199.23
11525,-0.91,-2.26,0.3,0.2,0.21,-1.02,621.53,394.09,-198.34
11536,-0.91,-2.26,0.37,0.19,0.22,-1.03,604.7,407.28,-184.31
11565,-0.91,-2.2,0.12,0.2,0.22,-1.01,618.43,397.05,-194.19
11576,-1.04,-2.13,0.24,0.2,0.22,-1.0,616.43,417.92,-188.1
11605,-0.98,-2.26,0.3,0.2,0.22,-1.01,606.44,405.39,-197.72
11616,-0.91,-2.2,0.18,0.2,0.22,-1.01,610.75,413.52,-198.83
11645,-1.04,-2.2,0.37,0.2,0.21,-1.01,614.03,404.91,-207.18
11656,-0.91,-2.32,0.24,0.19,0.22,-1.03,622.52,409.6,-187.15
11685,-0.98,-2.32,0.18,0.19,0.22,-1.01,606.37,401.6,-188.53
11696,-0.85,-2.2,0.43,0.2,0.22,-1.01,625.71,406.45,-196.63
11725,-1.04,-2.13,0.3,0.2,0.23,-1.02,622.59,413.39,-196.35
11736,-0.91,-2.07,0.24,0.2,0.23,-1.01,621.34,401.07,-195.43
11765,-0.85,-2.26,0.3,0.2,0.22,-1.0,616.7,408.14,-192.45
11776,-0.98,-2.13,0.24,0.2,0.22,-1.02,609.41,401.4,-192.58
11805,-0.98,-2.2,0.12,0.2,0.22,-1.01,613.73,417.39,-204.07
11816,-0.79,-2.13,0.24,0.2,0.22,-1.01,624.41,394.23,-193.05
11903,-0.91,-2.26,0.43,0.2,0.22,-1.01,606.15,415.22,-192.05
11914,-0.91,-2.2,0.3,0.19,0.22,-1.0,621.29,407.76,-200.52
11942,-0.98,-2.13,0.37,0.19,0.22,-1.02,609.56,398.45,-198.01
11953,-0.98,-2.13,0.24,0.2,0.23,-1.02,610.71,413.61,-196.17
11982,-0.91,-2.13,0.3,0.2,0.23,-1.0,615.16,413.53,-196.23
11993,-1.04,-2.07,0.18,0.19,0.23,-1.02,605.06,406.5,-205.66
12022,-0.91,-2.26,0.3,0.2,0.22,-1.01,622.48,418.89,-196.15
12033,-0.98,-2.2,0.18,0.2,0.22,-1.0,611.01,406.39,-205.75
12062,-0.91,-2.2,0.3,0.2,0.22,-1.0,617.93,413.91,-184.27
12073,-0.79,-2.2,0.24,0.19,0.23,-1.0,616.69,405.53,-188.54
12102,-0.91,-2.2,0.3,0.2,0.22,-1.01,616.44,424.46,-197.2
12113,-0.85,-2.2,0.12,0.2,0.22,-0.99,615.59,392.88,-196.96
12142,-0.85,-2.2,0.3,0.19,0.21,-1.01,622.77,399.86,-190.16
12153,-0.98,-2.2,0.24,0.2,0.22,-1.01,616.93,401.06,-198.03
12182,-0.85,-2.2,0.24,0.19,0.22,-1.01,606.28,411.0,-194.86
12193,-0.98,-2.13,0.49,0.19,0.23,-1.01,616.74,408.04,-195.12
12222,-0.98,-2.07,0.24,0.2,0.21,-1.01,625.71,406.45,-196.63
12233,-0.91,-2.26,-0.0,0.21,0.21,-1.01,615.05,409.84,-184.37
12262,-0.91,-2.2,0.24,0.2,0.22,-1.01,596.14,398.81,-195.14
12273,-0.85,-2.2,0.18,0.2,0.22,-1.01,609.62,404.9,-209.78
12302,-0.91,-2.2,0.37,0.2,0.22,-1.01,610.86,413.27,-205.51
12313,-0.98,-2.2,0.24,0.19,0.22,-1.02,607.83,406.89,-193.7
12342,-0.91,-2.2,0.24,0.2,0.23,-1.01,606.14,421.81,-199.81
12353,-0.98,-2.13,0.24,0.2,0.23,-1.01,613.87,405.25,-197.84
12382,-0.98,-2.2,0.18,0.2,0.23,-1.01,618.02,418.98,-196.08
12393,-0.91,-2.32,0.3,0.2,0.23,-1.01,606.37,410.8,-200.2
12422,-0.85,-2.26,0.3,0.2,0.22,-1.0,609.41,405.34,-197.77
12433,-0.85,-2.2,0.18,0.2,0.22,-1.01,610.8,406.83,-193.74
12462,-0.79,-2.26,0.24,0.2,0.22,-1.0,615.4,399.86,-194.05
12533,-0.91,-2.13,0.43,0.19,0.22,-1.0,624.16,410.56,-197.8
12543,-0.98,-2.26,0.24,0.2,0.22,-1.01,606.57,401.16,-200.54
12572,-0.91,-2.2,0.24,0.2,0.22,-1.0,625.75,402.41,-194.11
12583,-0.98,-2.26,0.24,0.2,0.23,-1.01,613.66,417.54,-200.07
12612,-0.98,-2.13,0.37,0.2,0.22,-1.0,609.63,407.5,-213.68
12623,-0.85,-2.13,0.37,0.2,0.22,-1.01,600.42,403.05,-189.73
12652,-0.91,-2.13,0.18,0.2,0.22,-1.01,618.33,409.1,-203.1
12663,-0.85,-2.2,0.24,0.2,0.23,-1.01,596.34,398.37,-207.15
12692,-0.85,-2.07,0.18,0.2,0.23,-1.02,624.02,417.44,-197.56
12703,-0.91,-2.2,0.49,0.2,0.22,-1.01,613.83,414.54,-206.84
12732,-0.98,-2.2,0.37,0.19,0.22,-1.0,615.15,416.18,-198.8
12743,-0.98,-2.2,0.37,0.2,0.22,-1.01,615.26,406.74,-193.81
12772,-0.98,-2.26,0.3,0.19,0.22,-1.0,604.9,406.85,-196.32
12783,-0.85,-2.26,0.3,0.2,0.22,-1.01,609.37,405.43,-195.1
12812,-1.04,-2.2,0.24,0.19,0.21,-1.02,608.02,399.91,-196.61
12823,-0.91,-2.13,0.18,0.2,0.22,-1.01,618.02,418.98,-196.08
12852,-0.91,-2.13,0.18,0.2,0.22,-1.0,618.33,409.1,-203.1
12863,-0.98,-2.26,0.43,0.19,0.23,-1.0,624.31,401.02,-195.47
12892,-0.91,-2.13,0.24,0.2,0.23,-1.02,618.41,402.36,-199.34
12903,-0.85,-2.2,0.3,0.19,0.23,-1.0,613.66,408.34,-188.4
12932,-0.98,-2.32,0.24,0.2,0.22,-1.02,624.55,393.94,-201.05
12943,-0.98,-2.26,0.37,0.2,0.22,-1.01,606.44,405.39,-197.72
12967,-0.91,-2.2,0.12,0.19,0.22,-1.01,616.84,401.26,-192.69
12987,-0.85,-2.26,0.3,0.19,0.23,-1.01,606.37,401.6,-188.53
13007,-0.91,-2.2,0.24,0.2,0.22,-1.0,610.94,397.34,-190.08
13027,-0.91,-2.26,0.3,0.2,0.23,-1.01,609.81,400.52,-216.6
13047,-0.91,-2.26,0.3,0.2,0.22,-1.01,618.08,416.22,-196.18
13067,-0.85,-2.2,0.24,0.19,0.23,-1.01,615.14,409.64,-189.71
13087,-0.98,-2.13,0.18,0.19,0.22,-1.01,624.03,414.78,-194.98
13184,-0.73,-2.2,0.37,0.19,0.22,-1.02,613.87,405.25,-197.84
13195,-0.98,-2.26,0.43,0.2,0.23,-1.01,608.22,399.47,-208.62
13223,-0.98,-2.13,0.18,0.2,0.22,-1.0,613.83,405.35,-195.17
13234,-1.1,-2.13,0.43,0.2,0.22,-1.01,618.36,402.46,-196.67
13263,-0.85,-2.32,0.18,0.19,0.22,-1.02,615.42,406.4,-203.15
13274,-0.98,-2.2,0.37,0.2,0.22,-1.01,622.75,413.05,-205.69
13303,-0.98,-2.26,0.3,0.21,0.21,-1.01,631.49,408.0,-188.67
13314,-1.04,-2.2,0.37,0.2,0.22,-1.01,606.04,424.66,-197.04
13343,-0.98,-2.13,0.3,0.2,0.22,-1.0,618.47,399.61,-199.43
13354,-0.91,-2.07,0.18,0.2,0.23,-1.01,623.97,408.34,-183.22
13383,-0.98,-2.2,0.3,0.19,0.22,-1.0,616.6,414.93,-194.87
13394,-1.04,-2.32,0.43,0.19,0.22,-1.01,609.06,424.51,-199.76
13423,-0.98,-2.2,0.3,0.2,0.21,-1.01,611.05,402.36,-203.23
13434,-0.98,-2.26,0.37,0.2,0.22,-1.0,610.99,409.05,-208.32
13463,-0.91,-2.26,0.24,0.2,0.23,-1.01,614.99,416.53,-189.46
13474,-0.98,-2.2,0.43,0.2,0.22,-1.01,623.13,392.49,-203.75
13503,-0.91,-2.2,0.24,0.2,0.22,-1.02,622.57,409.5,-189.82
13514,-0.85,-2.26,0.24,0.2,0.23,-1.0,621.41,404.86,-204.62
13543,-1.1,-2.13,0.24,0.19,0.22,-1.0,607.71,409.79,-189.6
13554,-0.79,-2.13,0.24,0.2,0.22,-1.0,627.13,410.5,-197.84
13583,-0.91,-2.13,0.37,0.2,0.22,-1.0,604.92,413.39,-205.42
13594,-0.85,-2.2,0.12,0.2,0.22,-1.01,627.25,404.99,-198.04
13623,-0.98,-2.32,0.24,0.19,0.22,-1.02,627.23,407.65,-200.61
13634,-0.79,-2.2,0.12,0.2,0.23,-1.01,613.72,408.2,-192.4
13663,-0.91,-2.2,0.37,0.19,0.23,-1.02,607.73,413.67,-196.12
13674,-0.91,-2.26,0.24,0.19,0.22,-1.01,622.39,413.83,-184.34
13703,-0.91,-2.13,0.24,0.2,0.21,-1.0,610.93,402.6,-196.56
13714,-0.91,-2.2,0.3,0.2,0.22,-1.01,611.05,397.1,-196.75
13743,-0.91,-2.2,0.3,0.2,0.22,-1.01,615.16,413.53,-196.23
13814,-0.91,-2.26,0.37,0.2,0.22,-1.01,616.97,400.97,-200.7
13824,-0.85,-2.13,0.37,0.2,0.22,-1.02,613.91,401.22,-195.31
13853,-0.91,-2.2,0.37,0.2,0.21,-1.0,621.19,410.61,-197.75
13864,-1.04,-2.2,0.37,0.2,0.22,-1.01,622.39,423.02,-196.0
13893,-0.91,-2.2,0.24,0.19,0.22,-1.01,609.41,401.4,-192.58
13904,-0.91,-2.13,0.37,0.2,0.22,-1.01,609.76,398.01,-210.02
13933,-0.79,-2.2,0.24,0.2,0.22,-1.01,616.84,401.26,-192.69
13944,-1.1,-2.13,0.12,0.2,0.22,-1.01,623.09,401.79,-212.75
13973,-0.79,-2.2,0.24,0.2,0.22,-1.01,621.15,408.05,-192.51
13984,-1.04,-2.13,0.18,0.2,0.22,-1.01,623.97,417.54,-194.89
14013,-0.85,-2.13,0.18,0.2,0.23,-1.02,615.2,409.5,-193.71
14024,-0.91,-2.2,-0.0,0.19,0.22,-1.0,615.26,406.74,-193.81
14053,-0.85,-2.13,0.3,0.19,0.21,-1.0,618.42,399.71,-196.77
14064,-0.98,-2.07,0.18,0.19,0.22,-1.02,610.95,409.14,-205.65
14093,-0.85,-2.26,0.24,0.19,0.22,-1.01,593.2,400.09,-199.05
14104,-0.98,-2.2,0.3,0.2,0.22,-1.03,609.47,407.84,-204.34
14128,-0.91,-2.26,0.18,0.19,0.22,-1.02,621.3,405.11,-197.95
14148,-0.85,-2.2,0.3,0.2,0.22,-1.03,610.96,406.49,-203.08
14168,-0.91,-2.2,0.37,0.19,0.22,-1.01,610.99,399.85,-196.65
14188,-0.91,-2.32,0.3,0.19,0.22,-1.01,597.22,414.11,-189.29
14208,-0.85,-2.26,0.3,0.19,0.22,-1.01,623.18,392.4,-206.42
14228,-0.91,-2.2,0.37,0.19,0.22,-1.01,604.8,409.7,-193.55
14248,-0.91,-2.2,0.43,0.2,0.22,-1.0,622.78,406.41,-199.26
14268,-0.91,-2.07,0.37,0.2,0.22,-1.01,622.69,406.6,-193.92
14288,-0.91,-2.2,0.24,0.2,0.22,-1.01,630.23,412.8,-208.47
14308,-0.98,-2.2,0.37,0.2,0.22,-1.01,614.16,400.68,-209.99
14328,-0.79,-2.07,0.37,0.2,0.22,-1.02,615.42,406.4,-203.15
14348,-0.91,-2.2,0.3,0.19,0.22,-1.0,613.72,414.79,-200.16
14368,-1.04,-2.13,0.3,0.19,0.22,-1.0,606.38,408.15,-197.63
14444,-0.91,-2.2,0.43,0.2,0.23,-1.01,613.96,401.12,-197.98
14454,-0.85,-2.26,0.18,0.2,0.22,-1.01,624.39,404.81,-204.67
14478,-0.91,-2.26,0.37,0.2,0.22,-1.01,609.84,384.69,-198.5
14498,-0.98,-2.13,0.43,0.19,0.22,-1.01,610.98,402.5,-199.22
14518,-0.85,-2.13,0.3,0.2,0.22,-1.02,599.17,405.19,-206.95
14538,-0.85,-2.13,0.37,0.19,0.23,-1.01,623.97,417.54,-194.89
14558,-0.98,-2.2,0.43,0.19,0.22,-1.01,613.87,405.25,-197.84
14578,-0.91,-2.2,0.3,0.19,0.22,-1.01,618.26,400.05,-187.43
14598,-0.85,-2.2,0.3,0.2,0.22,-1.02,614.99,416.53,-189.46
14618,-0.98,-2.2,0.24,0.2,0.22,-1.02,608.08,397.15,-196.71
14638,-0.98,-2.26,0.3,0.2,0.22,-1.01,625.66,406.54,-193.97
14658,-0.79,-2.26,0.37,0.2,0.22,-1.0,608.03,406.45,-205.7
14678,-1.04,-2.13,0.24,0.19,0.21,-1.0,618.55,406.0,-212.53
14698,-1.04,-2.2,0.3,0.2,0.23,-1.0,615.28,402.76,-189.95
14718,-0.98,-2.2,0.43,0.2,0.22,-1.01,606.35,405.59,-192.39
14738,-0.91,-2.13,0.37,0.19,0.22,-1.01,618.58,399.37,-206.11
14758,-1.04,-2.26,0.43,0.2,0.23,-1.01,600.5,409.44,-202.83
14778,-0.85,-2.2,0.3,0.2,0.23,-1.02,616.89,405.09,-200.55
14798,-0.98,-2.07,0.12,0.18,0.22,-1.0,607.62,413.92,-189.45
14818,-0.85,-2.13,0.3,0.19,0.22,-1.03,615.05,419.03,-196.04
14838,-0.91,-2.13,0.3,0.2,0.22,-1.0,622.64,413.29,-199.01
14858,-0.85,-2.13,0.24,0.2,0.23,-1.02,616.73,401.5,-186.02
14878,-0.91,-2.32,0.24,0.2,0.22,-1.0,613.87,405.25,-197.84
14898,-0.91,-2.2,0.24,0.19,0.22,-1.01,613.66,417.54,-200.07
14918,-0.91,-2.26,0.37,0.2,0.22,-1.0,618.22,409.34,-196.42
14938,-0.91,-2.2,0.18,0.2,0.22,-1.01,607.71,409.79,-189.6
14958,-0.91,-2.26,0.3,0.2,0.21,-1.01,614.16,391.48,-198.32
14978,-0.91,-2.2,0.24,0.2,0.21,-1.02,622.58,406.84,-187.25
14998,-1.04,-2.26,0.43,0.2,0.23,-1.01,613.66,408.34,-188.4
15175,-1.1,-2.2,0.37,0.2,0.22,-1.01,617.07,394.18,-198.27
15186,-0.98,-2.26,0.18,0.2,0.22,-1.0,621.03,410.95,-188.41
15215,-0.98,-2.26,0.24,0.19,0.22,-1.02,606.34,408.24,-194.96
15226,-0.91,-2.13,0.3,0.19,0.22,-1.02,625.76,408.96,-203.21
15255,-1.1,-2.13,0.3,0.2,0.22,-1.0,610.73,403.04,-184.55
15266,-0.98,-2.26,0.3,0.2,0.23,-1.01,615.41,409.06,-205.72
15295,-0.79,-2.13,0.18,0.2,0.23,-1.0,617.93,413.91,-184.27
15306,-0.91,-2.32,0.3,0.2,0.23,-1.02,621.21,405.3,-192.61
15335,-1.04,-2.13,0.3,0.2,0.23,-1.03,610.99,399.85,-196.65
15346,-0.85,-2.26,0.3,0.2,0.23,-1.01,621.24,407.86,-197.85
15375,-0.85,-2.2,0.37,0.2,0.21,-1.0,622.44,418.99,-193.48
15386,-0.98,-2.2,0.24,0.19,0.22,-1.01,621.4,407.52,-207.19
15415,-0.98,-2.13,0.24,0.2,0.23,-1.01,609.27,408.28,-192.34
15426,-0.91,-2.2,0.12,0.2,0.22,-1.02,618.28,406.59,-196.52
15455,-0.98,-2.2,0.37,0.19,0.22,-1.01,613.57,417.74,-194.73
15466,-0.91,-2.2,0.37,0.2,0.22,-1.03,615.09,418.94,-198.71
15495,-0.12,0.12,-0.18,0.19,0.22,-1.03,613.51,415.23,-188.16
15506,-0.12,0.12,0.06,0.2,0.23,-1.0,616.54,417.68,-194.77
15535,-0.06,-0.0,-0.06,0.2,0.22,-1.02,614.02,407.56,-209.75
15546,-0.12,-0.0,0.06,0.2,0.23,-1.0,602.14,410.4,-213.47
15575,-0.06,0.06,0.12,0.2,0.23,-1.02,622.88,399.62,-196.83
15586,-0.06,0.12,0.12,0.2,0.22,-1.0,616.8,405.29,-195.21
15615,-0.06,0.06,-0.0,0.19,0.23,-1.01,605.06,406.5,-205.66
15626,0.0,-0.0,-0.0,0.19,0.22,-1.0,609.6,394.42,-195.49
15655,0.0,-0.0,0.06,0.2,0.23,-1.0,609.64,394.32,-198.16
15666,0.0,-0.06,0.06,0.2,0.23,-1.01,610.99,399.85,-196.65
15695,-0.12,0.12,-0.06,0.21,0.23,-1.01,621.1,405.55,-185.94
15706,-0.12,0.12,-0.12,0.2,0.22,-1.0,614.14,404.66,-213.85
15735,0.0,-0.06,-0.0,0.2,0.23,-1.02,618.21,402.8,-187.33
15946,0.0,0.06,0.12,0.2,0.22,-1.01,622.58,416.04,-198.92
15956,-0.06,0.06,-0.0,0.2,0.22,-1.01,627.3,398.31,-192.95
15985,0.0,0.12,0.06,0.19,0.22,-1.02,616.94,398.41,-195.46
15996,-0.06,0.12,0.12,0.2,0.23,-1.02,605.25,399.52,-208.57
16025,-0.18,0.12,-0.0,0.19,0.22,-1.0,611.21,396.75,-206.09
16036,0.0,-0.06,-0.0,0.19,0.22,-1.01,618.05,422.86,-202.61
16065,0.0,-0.06,0.06,0.2,0.22,-1.01,615.05,413.77,-189.56
16076,-0.06,0.12,0.12,0.19,0.22,-1.02,617.78,423.45,-186.6
16105,-0.12,0.06,0.06,0.2,0.22,-1.02,618.53,399.46,-203.44
16116,0.0,-0.0,0.06,0.2,0.22,-1.01,616.89,410.36,-207.03
16145,-0.06,0.06,-0.0,0.21,0.22,-1.01,610.98,402.5,-199.22
16156,0.0,-0.0,-0.06,0.19,0.22,-1.0,621.29,398.57,-188.85
16185,-0.06,0.12,-0.06,0.2,0.22,-1.01,616.96,404.95,-204.55
16196,-0.24,-0.0,0.06,0.19,0.23,-1.01,615.44,402.42,-199.29
16225,-0.18,0.06,-0.0,0.19,0.22,-1.01,613.81,408.0,-197.74
16236,-0.12,0.12,-0.06,0.2,0.22,-1.01,609.69,394.23,-200.83
16265,-0.06,0.06,0.06,0.2,0.23,-1.01,627.44,400.62,-204.86
16276,-0.18,0.06,0.06,0.2,0.22,-1.01,620.85,415.28,-182.93
16305,0.0,-0.12,0.12,0.2,0.22,-1.01,610.89,402.7,-193.89
16305,0.0,-0.12,0.12,0.21,0.22,-1.03,243.01,768.08,166.37
16350,-0.06,-0.0,-0.06,0.2,0.22,-1.03,610.75,409.58,-193.64
16360,-0.18,0.06,-0.06,0.19,0.22,-1.0,618.12,416.13,-198.85
16389,-0.06,0.06,-0.06,0.19,0.23,-1.01,617.78,414.25,-174.93
16400,0.0,-0.0,-0.0,0.2,0.23,-1.01,621.0,417.59,-194.84
16429,0.0,-0.06,-0.06,0.2,0.23,-1.01,595.68,415.57,-187.89
16440,-0.06,0.06,0.12,0.19,0.22,-1.0,607.96,402.66,-196.51
16469,-0.12,0.06,-0.0,0.2,0.22,-1.01,610.66,413.71,-193.5
16480,0.0,-0.06,0.06,0.19,0.23,-1.02,624.55,393.94,-201.05
16509,0.06,-0.06,-0.0,0.2,0.22,-1.01,618.33,409.1,-203.1
16586,-0.06,-0.06,0.12,0.2,0.21,-1.01,600.49,402.9,-193.73
16597,-0.06,-0.0,0.06,0.19,0.22,-1.01,614.06,398.27,-200.75
16626,-0.12,0.18,0.06,0.2,0.22,-1.01,616.61,401.75,-179.35
16637,-0.06,0.06,0.12,0.2,0.22,-1.01,605.09,399.87,-199.23
16666,-0.06,0.18,-0.06,0.2,0.23,-1.01,605.15,402.38,-205.81
16677,-0.12,0.06,0.06,0.2,0.22,-1.01,615.39,402.52,-196.62
16706,-0.06,0.06,-0.06,0.2,0.22,-1.02,621.23,410.52,-200.42
16717,0.0,-0.06,0.06,0.19,0.22,-1.01,606.44,410.65,-204.2
16746,0.0,-0.0,-0.0,0.19,0.22,-1.02,627.3,407.5,-204.61
16757,-0.06,0.06,-0.0,0.2,0.22,-1.01,607.92,402.76,-193.84
16786,-0.12,0.06,0.06,0.2,0.23,-1.01,610.96,406.49,-203.08
16797,-0.12,0.06,0.12,0.2,0.22,-1.01,624.27,401.12,-192.8
16826,0.0,-0.06,-0.0,0.2,0.22,-1.02,616.99,398.31,-198.13
16837,0.0,-0.12,-0.0,0.19,0.22,-1.01,608.06,399.81,-199.28
16866,0.0,-0.06,-0.12,0.2,0.22,-1.01,631.6,407.76,-195.34
16877,-0.06,0.06,-0.12,0.2,0.22,-1.01,616.75,405.39,-192.54
16906,0.0,-0.0,0.12,0.2,0.22,-1.0,629.97,416.0,-196.36
16917,-0.06,0.06,-0.12,0.21,0.23,-1.01,601.68,417.96,-194.55
16946,0.12,-0.06,0.12,0.19,0.22,-1.0,639.08,407.52,-198.12
16957,-0.18,0.12,-0.0,0.2,0.22,-1.0,623.87,415.12,-185.64
16986,0.06,-0.06,-0.0,0.2,0.23,-1.01,622.89,406.16,-205.93
16997,0.0,0.06,-0.0,0.2,0.22,-1.02,606.24,411.09,-192.19
17026,0.12,-0.12,-0.0,0.2,0.21,-1.0,614.01,398.37,-198.08
17037,-0.18,0.18,0.12,0.21,0.23,-1.02,611.0,397.19,-194.08
17066,-0.18,0.06,-0.0,0.2,0.22,-1.01,607.72,407.13,-187.02
17077,-0.06,0.06,-0.0,0.2,0.22,-1.01,607.73,413.67,-196.12
17106,0.12,-0.0,0.06,0.2,0.22,-1.01,616.84,405.19,-197.88
17117,-0.06,-0.0,-0.06,0.2,0.23,-1.01,615.15,406.99,-187.14
17146,-0.06,0.06,-0.06,0.2,0.22,-1.01,621.21,414.5,-204.28
17219,-0.12,0.12,0.18,0.2,0.22,-1.02,622.38,416.48,-186.91
17229,-0.12,0.12,0.12,0.19,0.22,-1.02,604.95,406.75,-198.99
17258,-0.18,0.12,-0.12,0.19,0.22,-1.01,615.59,392.88,-196.96
17269,-0.06,0.06,-0.0,0.2,0.22,-1.02,607.77,409.64,-193.6
17298,-0.06,0.06,-0.0,0.19,0.23,-1.01,615.19,402.96,-184.61
17309,-0.06,0.06,-0.12,0.21,0.22,-1.02,615.65,399.32,-208.73
17338,-0.12,0.06,-0.0,0.2,0.23,-1.0,613.97,407.66,-207.08
17349,0.0,-0.0,0.06,0.2,0.23,-1.0,610.79,409.48,-196.31
17378,-0.12,0.12,0.12,0.2,0.22,-1.02,615.15,416.18,-198.8
17389,0.0,0.12,-0.06,0.2,0.22,-1.02,616.97,400.97,-200.7
17418,0.0,-0.18,0.06,0.19,0.21,-1.0,617.1,407.26,-216.47
17429,-0.06,0.06,-0.0,0.19,0.22,-1.0,616.46,421.81,-194.63
17458,-0.12,0.06,-0.0,0.19,0.22,-1.01,607.96,397.4,-190.03
17469,-0.12,0.06,0.18,0.19,0.23,-1.01,610.94,397.34,-190.08
17498,-0.12,0.06,0.18,0.2,0.22,-1.02,615.16,413.53,-196.23
17509,-0.06,0.06,0.06,0.2,0.22,-1.01,610.55,419.22,-193.3
17538,0.0,0.12,0.06,0.19,0.22,-1.02,621.29,407.76,-200.52
17549,-0.18,0.12,0.24,0.19,0.23,-1.0,615.45,399.76,-196.72
17578,-0.18,0.06,-0.06,0.2,0.21,-1.01,609.21,414.97,-197.43
17589,-0.06,0.06,0.06,0.2,0.23,-1.0,616.79,407.95,-197.78
17618,-0.06,-0.0,-0.0,0.2,0.22,-1.01,596.18,398.71,-197.81
17629,-0.06,0.06,-0.0,0.19,0.22,-1.01,624.26,407.71,-200.57
17658,-0.12,0.06,0.06,0.2,0.22,-1.0,622.69,406.6,-193.92
17669,-0.06,0.06,0.12,0.2,0.23,-1.01,639.25,404.52,-204.89
17698,0.0,-0.12,0.12,0.19,0.22,-1.01,623.13,392.49,-203.75
17709,-0.12,0.12,0.12,0.2,0.22,-1.0,606.59,407.71,-209.64
17738,0.0,-0.0,0.06,0.19,0.22,-1.02,592.96,409.83,-196.04
17749,0.0,-0.06,-0.0,0.2,0.21,-1.01,609.36,408.09,-197.67
17778,-0.18,0.12,0.06,0.2,0.23,-1.0,631.5,414.54,-197.77
17851,0.06,-0.0,-0.06,0.19,0.22,-1.01,630.0,409.36,-189.93
17861,-0.06,0.06,-0.06,0.19,0.22,-1.01,601.88,408.33,-194.89
17890,-0.12,0.06,0.06,0.19,0.23,-1.01,618.43,397.05,-194.19
17901,-0.18,0.12,-0.06,0.19,0.22,-1.02,616.68,410.8,-195.02
17930,-0.12,-0.0,-0.06,0.19,0.22,-1.01,610.59,409.92,-184.3
17941,-0.12,0.12,0.06,0.19,0.22,-1.0,605.19,402.28,-208.47
17970,-0.06,0.06,0.06,0.19,0.23,-1.01,615.65,390.13,-197.06
17981,-0.12,0.18,0.18,0.2,0.22,-1.02,618.38,399.8,-194.1
18010,-0.06,0.18,0.12,0.19,0.22,-1.01,601.72,408.67,-185.55
18021,-0.12,0.12,-0.0,0.19,0.22,-1.01,610.79,409.48,-196.31
18050,-0.06,0.18,-0.0,0.2,0.22,-1.01,615.31,415.84,-208.14
18061,-0.06,0.24,-0.0,0.2,0.21,-1.0,609.3,410.84,-197.57
18090,-0.06,0.12,0.06,0.2,0.22,-1.0,609.31,408.19,-195.0
18101,-0.12,0.12,-0.0,0.2,0.22,-1.01,608.18,399.56,-205.95
18130,-0.12,0.12,0.12,0.2,0.22,-1.02,609.21,411.04,-192.24
18141,-0.24,0.12,-0.0,0.2,0.23,-1.0,610.65,416.37,-196.07
18170,-0.06,0.12,0.06,0.2,0.22,-1.01,610.96,406.49,-203.08
18181,-0.06,0.12,0.06,0.2,0.21,-1.02,606.54,398.61,-195.3
18210,0.0,-0.0,-0.06,0.19,0.22,-1.0,616.73,410.7,-197.69
18221,-0.12,0.06,-0.0,0.19,0.22,-1.01,616.7,421.27,-209.31
18250,0.0,-0.0,0.12,0.2,0.23,-1.02,613.76,410.76,-197.64
18261,-0.12,0.12,0.12,0.19,0.22,-1.0,621.34,401.07,-195.43
18290,-0.06,0.18,-0.06,0.19,0.23,-1.0,616.77,410.6,-200.36
18301,-0.06,0.06,0.06,0.2,0.22,-1.01,618.23,406.69,-193.85
18330,-0.06,0.12,0.06,0.2,0.21,-1.02,608.02,399.91,-196.61
18341,-0.18,0.12,0.06,0.2,0.21,-1.0,600.51,413.38,-208.02
18370,-0.06,-0.18,-0.12,0.2,0.22,-1.01,621.26,405.2,-195.28
18381,-0.06,-0.0,0.18,0.19,0.22,-1.01,606.01,422.11,-191.8
18410,-0.12,0.06,0.12,0.2,0.22,-1.02,624.26,407.71,-200.57
18487,-0.06,0.06,-0.0,0.19,0.23,-1.0,622.57,409.5,-189.82
18498,-0.12,0.06,0.06,0.2,0.22,-1.02,618.39,406.35,-203.19
18527,-0.18,-0.0,0.06,0.2,0.22,-1.0,601.77,408.57,-188.22
18538,-0.06,0.18,0.06,0.2,0.22,-1.0,604.86,406.94,-193.65
18567,-0.06,0.12,0.06,0.2,0.23,-1.0,615.31,415.84,-208.14
18578,0.0,-0.0,0.06,0.2,0.22,-1.02,618.02,418.98,-196.08
18607,-0.12,0.12,0.06,0.2,0.22,-1.01,618.08,407.03,-184.51
18618,-0.12,0.06,0.18,0.19,0.22,-1.02,607.85,402.9,-189.84
18647,-0.18,0.12,0.06,0.2,0.22,-0.99,610.82,402.85,-189.88
18658,-0.06,0.06,0.12,0.2,0.23,-1.0,613.96,401.12,-197.98
18687,0.06,-0.06,-0.06,0.2,0.23,-1.02,618.11,409.59,-189.75
18698,-0.06,-0.0,0.12,0.2,0.23,-1.01,618.12,416.13,-198.85
18727,-0.18,0.12,0.12,0.2,0.22,-1.01,607.76,407.03,-189.69
18738,-0.18,0.12,0.06,0.19,0.22,-1.01,597.6,402.76,-199.02
18767,-0.12,0.12,0.18,0.2,0.22,-1.01,624.4,400.82,-200.81
18778,0.06,-0.0,0.06,0.2,0.23,-1.0,615.4,399.86,-194.05
18807,-0.06,0.12,0.18,0.19,0.23,-1.01,615.42,406.4,-203.15
18818,-0.18,0.18,0.06,0.19,0.23,-1.0,609.7,400.77,-209.93
18847,-0.06,0.06,0.12,0.19,0.21,-1.02,607.97,400.0,-193.94
18858,-0.12,0.18,0.06,0.2,0.23,-1.01,620.89,417.84,-188.17
18887,-0.12,0.12,0.06,0.2,0.23,-1.02,605.26,402.13,-212.48
18898,-0.24,0.18,0.06,0.2,0.22,-1.01,622.63,409.35,-193.82
18927,-0.06,0.06,0.06,0.2,0.23,-1.0,605.26,402.13,-212.48
18927,-0.06,0.06,0.06,0.2,0.23,-1.02,237.72,767.07,149.9
18972,-0.06,0.06,0.12,0.19,0.22,-1.01,625.6,406.69,-189.96
18987,0.12,-0.06,-0.0,0.2,0.22,-1.02,616.8,405.29,-195.21
19002,-0.18,0.06,0.06,0.19,0.23,-1.01,615.05,419.03,-196.04
19031,-0.06,0.06,-0.12,0.19,0.22,-1.0,621.26,405.2,-195.28
19042,0.0,-0.0,0.06,0.2,0.21,-1.0,615.44,402.42,-199.29
19119,-0.12,0.06,0.18,0.19,0.22,-1.0,587.23,397.65,-193.72
19129,-0.18,0.06,-0.0,0.21,0.22,-1.02,606.44,401.46,-192.53
19158,-0.06,-0.0,-0.0,0.2,0.22,-1.01,610.79,409.48,-196.31
19169,-0.06,0.06,0.06,0.19,0.22,-1.01,625.65,409.2,-196.54
19198,-0.06,-0.0,-0.0,0.2,0.23,-1.01,604.79,403.16,-184.46
19209,-0.06,0.06,-0.0,0.2,0.21,-1.0,615.39,402.52,-196.62
19238,-0.12,0.12,0.06,0.2,0.22,-1.01,614.16,400.68,-209.99
19249,-0.06,0.12,0.12,0.2,0.22,-1.01,613.91,401.22,-195.31
19278,-0.06,0.06,0.12,0.2,0.23,-1.02,604.55,416.82,-186.64
19289,-0.12,0.06,-0.0,0.2,0.22,-1.0,615.12,413.63,-193.56
19318,-0.06,0.06,-0.12,0.2,0.22,-1.0,611.34,392.53,-208.91
19329,-0.18,0.18,-0.12,0.2,0.22,-1.01,636.21,399.46,-194.37
19358,-0.12,0.06,0.06,0.19,0.23,-1.0,597.29,413.97,-193.29
19369,0.0,-0.0,-0.06,0.2,0.23,-1.01,624.27,405.05,-197.99
19398,0.0,-0.0,-0.06,0.2,0.23,-1.01,610.75,409.58,-193.64
19409,-0.12,0.12,0.06,0.2,0.23,-1.01,621.19,410.61,-197.75
19438,0.0,-0.06,-0.0,0.19,0.22,-1.01,625.61,413.23,-199.06
19449,-0.12,-0.0,0.24,0.2,0.22,-1.0,606.37,410.8,-200.2
19478,-0.12,0.06,-0.06,0.2,0.21,-1.01,615.28,413.29,-202.9
19489,-0.06,0.06,0.06,0.19,0.22,-1.01,625.61,413.23,-199.06
19518,-0.06,0.12,0.06,0.2,0.22,-1.01,613.87,405.25,-197.84
19529,-0.06,-0.0,0.06,0.19,0.24,-1.01,624.27,410.31,-204.47
19558,-0.12,-0.0,-0.0,0.2,0.22,-1.0,615.17,422.73,-207.9
19569,-0.06,0.12,-0.0,0.19,0.22,-1.01,622.51,422.78,-202.68
19598,0.0,-0.0,0.06,0.2,0.22,-1.01,606.24,415.03,-197.38
19609,-0.18,0.12,0.06,0.19,0.22,-1.0,610.99,399.85,-196.65
19638,-0.06,-0.0,0.06,0.2,0.22,-1.02,627.18,410.4,-200.51
19649,0.06,-0.06,-0.0,0.2,0.22,-1.01,606.44,405.39,-197.72
19678,-0.06,0.06,-0.0,0.2,0.23,-1.01,633.18,406.21,-199.42
19750,-0.06,-0.06,0.12,0.2,0.22,-1.02,610.84,409.39,-198.98
19761,-0.06,-0.0,-0.0,0.2,0.23,-1.02,604.94,402.81,-193.8
19790,0.0,-0.06,-0.12,0.2,0.22,-1.01,615.55,402.18,-205.96
19801,-0.06,0.06,0.12,0.19,0.22,-1.01,622.62,406.75,-189.92
19830,-0.06,0.06,0.06,0.19,0.23,-1.01,615.46,397.11,-194.15
19841,-0.12,0.06,0.06,0.2,0.21,-1.02,598.85,411.14,-194.75
19870,-0.12,0.18,0.06,0.2,0.23,-1.01,609.3,410.84,-197.57
19881,-0.06,0.06,0.06,0.2,0.22,-1.01,634.43,414.58,-195.14
19910,0.0,-0.06,0.06,0.19,0.22,-1.01,610.93,402.6,-196.56
19921,-0.18,0.12,0.12,0.19,0.22,-1.01,616.84,410.45,-204.36
19950,-0.06,0.12,-0.0,0.2,0.22,-1.01,616.85,414.39,-209.55
19961,-0.12,0.06,0.12,0.2,0.22,-1.0,627.03,408.09,-188.6
19990,-0.18,0.06,-0.0,0.2,0.22,-1.01,613.67,414.89,-197.5
20001,0.0,-0.06,0.06,0.2,0.23,-1.0,611.0,397.19,-194.08
20030,-0.12,0.06,-0.06,0.21,0.23,-1.01,613.86,407.91,-200.41
20041,-0.06,0.12,0.3,0.2,0.23,-1.01,613.46,417.98,-188.06
20070,-0.06,-0.0,0.18,0.2,0.23,-1.01,607.83,416.08,-205.36
20081,-0.18,0.06,0.06,0.2,0.23,-1.01,613.67,410.95,-192.3
20110,-0.06,-0.0,0.06,0.19,0.22,-1.0,624.33,407.56,-204.57
20121,-0.12,0.06,-0.06,0.2,0.23,-1.01,617.97,416.47,-189.51
20150,0.0,-0.0,0.06,0.2,0.22,-1.02,621.39,400.98,-198.1
20161,-0.06,0.06,0.06,0.2,0.21,-1.02,609.21,414.97,-197.43
20190,-0.12,-0.0,0.06,0.19,0.22,-1.02,615.21,413.43,-198.9
20201,-0.18,0.06,0.12,0.2,0.22,-1.01,622.93,402.13,-203.41
20230,-0.06,0.12,0.12,0.19,0.23,-1.02,596.08,410.76,-206.71
20241,-0.12,0.06,0.12,0.19,0.22,-1.0,616.63,408.29,-188.44
20270,-0.06,0.12,-0.12,0.2,0.21,-1.01,621.41,404.86,-204.62
20281,0.06,-0.0,0.12,0.2,0.22,-1.01,607.67,407.23,-184.36
20310,0.0,-0.06,0.18,0.2,0.22,-1.01,606.23,408.49,-188.29
20382,0.0,-0.0,0.06,0.19,0.22,-1.01,621.64,388.59,-198.53
20393,-0.12,0.06,-0.0,0.2,0.22,-1.02,622.59,413.39,-196.35
20421,-0.06,0.06,0.06,0.19,0.22,-1.0,600.43,409.59,-198.82
20432,-0.18,0.06,0.06,0.2,0.23,-1.01,615.44,402.42,-199.29
20461,-0.12,-0.0,-0.06,0.19,0.22,-1.01,609.25,410.94,-194.91
20472,-0.06,-0.0,-0.0,0.2,0.22,-1.01,613.83,405.35,-195.17
20501,0.06,-0.0,0.12,0.2,0.22,-1.02,625.66,406.54,-193.97
20512,0.0,-0.12,-0.0,0.2,0.23,-1.0,609.57,404.99,-207.11
20541,-0.06,0.12,0.06,0.2,0.22,-1.01,606.54,407.8,-206.97
20552,0.0,-0.0,0.06,0.2,0.22,-1.01,627.23,407.65,-200.61
20581,0.0,-0.0,-0.06,0.2,0.22,-1.01,618.02,413.72,-189.61
20592,-0.06,0.06,-0.0,0.2,0.23,-1.01,608.06,399.81,-199.28
20621,-0.06,-0.0,0.06,0.2,0.23,-1.02,615.39,402.52,-196.62
20632,0.0,-0.0,-0.0,0.19,0.23,-1.01,616.79,407.95,-197.78
20661,-0.24,0.06,0.12,0.2,0.23,-1.01,615.26,406.74,-193.81
20672,-0.12,0.06,-0.0,0.2,0.22,-1.02,621.15,408.05,-192.51
20701,-0.12,0.12,0.06,0.2,0.22,-1.0,620.96,417.69,-192.17
20712,-0.06,0.06,-0.0,0.2,0.22,-1.02,622.88,399.62,-196.83
20741,-0.12,-0.0,0.12,0.19,0.22,-1.01,624.2,401.26,-188.8
20752,-0.06,0.06,-0.0,0.2,0.23,-1.01,613.63,414.98,-194.83
20781,-0.06,0.06,-0.06,0.2,0.23,-1.01,616.74,408.04,-195.12
20792,-0.06,0.06,-0.0,0.2,0.22,-1.0,616.88,401.16,-195.36
20821,-0.12,0.06,0.06,0.19,0.21,-1.01,621.44,398.22,-198.19
20832,-0.18,0.06,0.06,0.2,0.22,-1.0,624.19,414.44,-204.33
20861,-0.06,-0.0,-0.0,0.2,0.21,-1.01,625.71,406.45,-196.63
20872,0.0,-0.0,0.12,0.2,0.22,-1.02,621.18,401.42,-186.09
20901,-0.18,0.06,-0.0,0.2,0.21,-1.01,613.81,408.0,-197.74
20912,0.0,-0.06,0.06,0.2,0.22,-1.0,622.78,406.41,-199.26
20941,-0.12,0.06,-0.12,0.19,0.22,-1.01,614.07,400.88,-204.66
21014,0.0,-0.06,-0.06,0.2,0.22,-1.01,621.06,414.84,-194.94
21029,-0.12,0.06,0.24,0.2,0.22,-1.01,627.3,407.5,-204.61
21044,0.0,-0.0,0.12,0.19,0.23,-1.01,604.81,413.63,-198.74
21073,-0.18,0.06,0.06,0.2,0.23,-1.01,624.37,398.26,-195.57
21084,-0.06,0.12,-0.0,0.19,0.22,-1.01,607.68,425.62,-207.69
21113,-0.06,0.12,-0.12,0.2,0.22,-1.0,622.69,406.6,-193.92
21124,0.0,-0.0,-0.0,0.2,0.22,-1.02,615.05,413.77,-189.56
21153,-0.06,0.06,0.12,0.2,0.23,-1.01,622.62,406.75,-189.92
21164,-0.06,0.06,0.06,0.19,0.23,-1.0,610.65,416.37,-196.07
21193,0.06,-0.06,0.06,0.2,0.22,-1.0,621.29,407.76,-200.52
21204,-0.06,-0.0,-0.06,0.2,0.22,-1.01,621.21,405.3,-192.61
21233,-0.06,-0.0,0.06,0.2,0.22,-1.02,605.03,402.62,-199.13
21244,-0.24,0.06,0.06,0.2,0.22,-1.02,615.14,409.64,-189.71
21273,-0.12,0.06,0.06,0.19,0.23,-1.01,614.0,401.02,-200.65
21284,-0.12,0.06,0.06,0.2,0.23,-1.0,616.59,417.58,-197.44
21313,-0.12,0.06,0.06,0.19,0.22,-1.01,607.62,419.18,-195.93
21324,-0.06,0.06,0.12,0.2,0.22,-1.01,608.23,396.81,-206.05
21353,-0.06,0.06,0.18,0.2,0.21,-1.01,610.71,413.61,-196.17
21364,-0.12,0.06,-0.06,0.2,0.22,-1.0,610.89,406.63,-199.08
21393,-0.06,0.06,-0.0,0.2,0.22,-1.01,610.98,402.5,-199.22
21404,-0.06,0.06,-0.0,0.19,0.22,-1.01,613.71,410.85,-194.97
21433,-0.12,0.12,-0.06,0.2,0.22,-1.01,611.13,392.97,-196.9
21444,-0.12,0.06,-0.06,0.2,0.22,-1.02,624.0,410.9,-188.46
21473,-0.06,0.06,0.06,0.2,0.23,-1.01,622.83,399.72,-194.16
21484,0.0,-0.0,0.06,0.19,0.22,-1.0,613.57,421.67,-199.92
21513,-0.06,0.12,0.06,0.21,0.22,-1.01,621.26,405.2,-195.28
21524,0.0,-0.0,0.12,0.2,0.23,-1.0,624.23,405.15,-195.33
21553,-0.06,0.06,0.12,0.19,0.23,-1.01,605.2,399.62,-205.9
21564,0.0,-0.0,-0.06,0.2,0.22,-1.01,635.96,415.79,-199.12
21641,0.0,-0.06,0.12,0.21,0.23,-1.01,624.53,397.92,-204.91
21651,-0.12,0.12,-0.0,0.2,0.23,-1.01,600.73,393.17,-196.74
21680,-0.12,0.12,0.06,0.2,0.22,-1.0,630.17,406.36,-196.7
21691,-0.12,0.12,-0.0,0.2,0.22,-1.01,610.5,414.05,-184.16
21720,-0.06,0.24,0.12,0.2,0.22,-1.0,613.72,414.79,-200.16
21731,0.06,-0.06,-0.06,0.2,0.23,-1.0,613.92,405.15,-200.51
21760,-0.12,0.06,-0.12,0.2,0.22,-1.01,609.26,405.68,-188.43
21771,-0.06,0.06,-0.0,0.2,0.23,-1.01,622.53,418.79,-198.82
21800,0.0,-0.06,0.06,0.2,0.22,-0.99,622.94,406.06,-208.6
21811,-0.06,0.12,0.06,0.19,0.22,-1.0,600.49,402.9,-193.73
21840,-0.06,0.12,0.18,0.19,0.21,-1.01,615.22,416.04,-202.81
21851,-0.06,0.06,0.18,0.19,0.23,-1.01,609.33,414.73,-204.1
21880,-0.06,0.06,-0.0,0.2,0.23,-1.02,615.58,406.06,-212.49
21891,0.0,-0.0,0.06,0.2,0.22,-1.01,613.86,407.91,-200.41
21920,-0.12,0.06,-0.0,0.2,0.22,-1.0,622.48,413.63,-189.67
21931,-0.06,0.12,0.06,0.2,0.22,-1.01,591.67,401.55,-197.65
21960,0.0,0.06,-0.0,0.2,0.21,-1.01,616.84,401.26,-192.69
21971,-0.06,0.12,-0.0,0.2,0.22,-1.0,609.6,394.42,-195.49
22000,-0.06,0.06,-0.06,0.19,0.22,-1.0,618.42,399.71,-196.77
22011,-0.06,-0.0,-0.0,0.2,0.22,-1.02,610.82,413.37,-202.84
22040,0.0,0.06,0.06,0.2,0.23,-1.0,630.22,408.87,-203.28
22051,-0.06,0.06,-0.0,0.19,0.23,-1.01,604.94,402.81,-193.8
22080,-0.06,0.06,0.12,0.19,0.23,-1.02,616.64,410.89,-192.35
22091,-0.06,0.12,-0.0,0.19,0.22,-1.01,615.31,406.65,-196.48
22120,-0.18,0.12,-0.0,0.2,0.22,-1.01,614.21,393.99,-204.9
22131,-0.06,0.06,-0.06,0.2,0.22,-1.01,606.29,408.34,-192.29
22160,-0.06,0.12,0.06,0.2,0.22,-1.01,615.35,406.55,-199.15
22171,0.0,-0.06,0.12,0.19,0.22,-1.02,618.17,406.83,-189.85
22200,-0.12,0.06,-0.0,0.2,0.22,-1.0,610.74,406.98,-189.74
22272,0.0,-0.12,0.06,0.19,0.22,-0.99,604.92,413.39,-205.42
22283,0.0,-0.0,-0.06,0.2,0.23,-1.01,622.74,406.5,-196.59
22312,0.0,-0.0,0.12,0.2,0.22,-1.02,624.31,401.02,-195.47
22323,-0.06,0.06,0.12,0.2,0.22,-1.0,614.95,407.43,-175.13
22352,-0.12,0.06,0.12,0.2,0.23,-1.01,627.45,404.55,-210.05
22363,-0.12,0.06,0.06,0.19,0.22,-1.01,625.85,408.76,-208.55
22392,-0.12,0.06,-0.0,0.21,0.22,-1.02,618.25,413.23,-202.95
22403,-0.06,0.06,-0.0,0.2,0.22,-1.01,624.22,407.8,-197.9
22432,-0.06,0.06,-0.0,0.19,0.22,-1.02,623.93,417.63,-192.22
22443,-0.06,0.12,0.06,0.19,0.23,-1.02,613.93,407.76,-204.41
22472,-0.12,0.06,-0.18,0.19,0.22,-1.01,622.69,406.6,-193.92
22483,-0.06,0.12,0.06,0.19,0.22,-1.01,625.54,409.44,-189.86
22512,-0.06,0.06,0.06,0.19,0.22,-1.01,614.94,419.28,-189.37
22523,0.0,0.06,0.18,0.2,0.23,-1.0,610.94,397.34,-190.08
22552,-0.06,0.06,0.12,0.2,0.22,-1.01,613.51,411.29,-182.96
22563,-0.06,0.12,-0.0,0.19,0.23,-1.01,618.18,409.44,-193.76
22592,0.0,-0.06,-0.0,0.19,0.22,-1.02,614.0,401.02,-200.65
22603,-0.06,0.06,0.06,0.19,0.23,-1.01,609.16,417.72,-197.33
22632,0.0,-0.0,0.06,0.19,0.22,-1.02,597.6,402.76,-199.02
22643,-0.06,0.06,0.06,0.19,0.22,-1.01,605.16,399.72,-203.23
22672,-0.18,-0.0,0.12,0.2,0.22,-1.0,622.98,402.03,-206.08
22683,-0.06,0.12,-0.06,0.2,0.22,-1.01,622.85,406.26,-203.26
22712,-0.12,0.06,-0.0,0.19,0.22,-1.01,609.5,401.21,-197.92
22723,-0.06,-0.0,-0.0,0.2,0.23,-1.0,604.9,406.85,-196.32
22752,-0.06,0.06,0.18,0.2,0.22,-1.02,615.26,406.74,-193.81
22763,-0.18,0.18,0.18,0.2,0.22,-1.01,624.33,407.56,-204.57
22792,-0.06,0.06,0.06,0.19,0.23,-1.01,609.06,415.31,-188.09
22803,-0.12,0.12,-0.06,0.19,0.22,-1.02,622.42,416.38,-189.58
22832,-0.12,0.12,0.12,0.19,0.22,-1.02,630.05,406.6,-190.03
22905,0.0,-0.06,0.06,0.2,0.23,-1.02,622.85,406.26,-203.26
22915,-0.24,0.06,-0.06,0.2,0.23,-1.01,606.57,401.16,-200.54
22944,-0.06,-0.06,0.24,0.2,0.21,-1.02,621.46,404.77,-207.29
22955,-0.24,0.12,0.06,0.21,0.22,-1.02,618.08,407.03,-184.51
22984,0.0,-0.12,-0.0,0.19,0.22,-1.01,621.29,407.76,-200.52
22995,-0.06,0.12,-0.0,0.19,0.22,-1.01,614.95,425.82,-198.46
23024,0.0,-0.0,-0.0,0.2,0.23,-1.01,618.34,413.03,-208.29
23035,-0.12,0.12,0.18,0.19,0.21,-1.0,621.24,407.86,-197.85
23064,-0.12,0.12,-0.0,0.2,0.22,-1.02,616.83,407.85,-200.45
23075,-0.06,0.06,-0.0,0.2,0.22,-1.02,605.09,399.87,-199.23
23104,-0.06,0.06,-0.12,0.2,0.23,-1.01,609.56,398.45,-198.01
23115,-0.06,0.12,-0.0,0.2,0.22,-1.0,606.53,401.26,-197.87
23144,-0.12,0.12,-0.0,0.19,0.22,-1.01,618.31,399.95,-190.09
23155,-0.06,0.12,0.24,0.2,0.22,-1.0,606.35,405.59,-192.39
23184,-0.12,0.12,0.06,0.2,0.22,-1.01,607.85,402.9,-189.84
23195,-0.06,-0.06,0.12,0.2,0.22,-1.01,625.71,406.45,-196.63
23224,0.0,-0.0,-0.06,0.2,0.22,-0.99,607.53,423.31,-195.78
23235,-0.06,0.06,0.18,0.2,0.22,-1.01,606.17,411.24,-188.19
23264,-0.06,0.12,0.06,0.19,0.22,-1.02,622.75,413.05,-205.69
23275,-0.06,-0.0,0.06,0.2,0.22,-1.01,613.86,407.91,-200.41
23304,-0.06,0.12,0.18,0.2,0.22,-1.01,622.92,399.52,-199.5
23315,-0.06,0.06,-0.0,0.2,0.22,-1.02,622.23,426.02,-189.23
23344,-0.12,0.12,0.06,0.19,0.22,-1.01,621.36,407.62,-204.52
23355,-0.06,0.06,0.06,0.2,0.23,-1.01,622.78,402.47,-194.07
23384,0.0,-0.0,0.06,0.2,0.22,-1.01,616.94,398.41,-195.46
23395,0.0,-0.0,0.18,0.2,0.22,-1.01,622.87,402.28,-199.4
23424,-0.12,-0.0,-0.0,0.19,0.22,-1.0,606.28,405.73,-188.38
23435,0.0,-0.0,-0.06,0.19,0.22,-1.01,624.13,408.0,-192.56
23464,0.0,-0.12,-0.06,0.19,0.23,-0.99,622.63,409.35,-193.82
23541,0.0,-0.0,0.18,0.19,0.22,-1.0,615.56,399.52,-203.39
23541,0.0,-0.0,0.18,0.2,0.22,-1.03,247.84,764.77,157.74
23585,-0.06,0.12,-0.0,0.2,0.22,-1.01,609.12,421.76,-199.85
23595,0.0,-0.0,0.18,0.19,0.23,-1.0,604.81,413.63,-198.74
23624,-0.12,0.12,-0.0,0.2,0.22,-1.02,614.96,423.16,-195.89
23635,-0.06,-0.0,0.12,0.19,0.23,-0.99,609.56,398.45,-198.01
23664,0.0,-0.0,-0.0,0.19,0.23,-1.01,624.46,398.07,-200.91
23675,-0.06,0.06,0.18,0.2,0.23,-1.0,618.44,406.25,-205.86
23704,-0.06,0.06,0.12,0.2,0.22,-1.0,596.03,408.25,-200.14
23715,-0.06,0.12,0.12,0.2,0.22,-1.01,615.21,418.69,-205.38
23744,-0.12,0.06,0.06,0.2,0.22,-1.01,610.82,413.37,-202.84
23755,0.06,-0.0,0.12,0.2,0.22,-1.0,601.93,408.23,-197.56
23784,0.0,-0.12,-0.0,0.2,0.23,-1.01,601.55,422.19,-191.74
23795,0.0,-0.06,-0.0,0.19,0.22,-1.01,615.49,399.67,-199.39
23824,0.0,-0.06,0.06,0.19,0.22,-1.02,618.14,413.47,-196.28
23835,-0.06,0.12,-0.06,0.19,0.22,-1.01,613.66,408.34,-188.4
23864,-0.06,0.06,0.06,0.2,0.22,-1.01,616.88,401.16,-195.36
23875,-0.12,0.12,0.12,0.2,0.22,-1.0,631.76,407.42,-204.68
23904,-0.06,0.06,-0.0,0.2,0.21,-1.0,621.1,410.81,-192.42
23915,-0.06,0.06,-0.12,0.2,0.22,-1.01,609.75,394.08,-204.83
23944,-0.06,0.06,0.06,0.2,0.22,-1.02,601.78,415.11,-197.32
23955,0.06,-0.0,0.06,0.19,0.22,-1.01,613.83,405.35,-195.17
23984,-0.06,0.06,0.06,0.2,0.23,-1.02,621.4,407.52,-207.19
23995,-0.06,0.12,-0.0,0.2,0.22,-1.01,610.98,402.5,-199.22
24024,-0.06,0.12,0.12,0.2,0.22,-1.0,613.8,410.66,-200.31
24035,0.0,-0.0,0.12,0.19,0.22,-1.01,595.88,405.93,-188.23
24064,0.0,-0.0,-0.06,0.19,0.22,-1.01,613.91,401.22,-195.31
24075,0.0,0.06,0.06,0.2,0.23,-1.01,601.98,410.74,-204.13
24104,-0.06,-0.0,0.06,0.2,0.22,-1.01,635.85,418.64,-196.35
24176,-0.18,0.06,0.12,0.2,0.22,-1.0,605.19,402.28,-208.47
24192,0.0,-0.06,0.06,0.2,0.22,-1.01,625.85,408.76,-208.55
24207,0.12,-0.0,-0.0,0.2,0.23,-1.01,614.95,416.62,-186.8
24236,-0.06,0.12,0.12,0.21,0.22,-1.01,627.1,407.94,-192.6
24247,0.0,-0.06,0.06,0.2,0.22,-1.01,600.29,416.47,-198.58
24276,0.0,-0.0,0.06,0.19,0.23,-1.01,613.72,408.2,-192.4
24287,-0.06,0.06,0.18,0.19,0.22,-1.01,625.61,409.3,-193.87
24316,0.0,-0.0,-0.06,0.2,0.23,-1.02,622.6,422.58,-208.01
24327,0.0,0.12,-0.0,0.19,0.23,-0.99,622.48,413.63,-189.67
24356,-0.06,0.06,-0.0,0.2,0.23,-1.02,615.23,402.86,-187.28
24367,-0.06,0.06,0.06,0.19,0.22,-1.01,622.8,412.95,-208.35
24396,-0.06,0.12,-0.0,0.21,0.22,-1.02,620.85,427.13,-197.17
24407,-0.06,0.12,-0.0,0.2,0.21,-1.0,616.55,415.02,-192.2
24436,-0.06,0.18,0.18,0.19,0.22,-1.01,616.79,407.95,-197.78
24447,0.0,-0.0,0.12,0.2,0.22,-1.01,621.15,414.65,-200.28
24476,-0.12,0.18,-0.06,0.2,0.22,-1.01,632.89,416.04,-193.74
24487,0.0,0.06,-0.0,0.2,0.23,-1.02,624.26,407.71,-200.57
24516,-0.12,0.12,0.06,0.2,0.23,-1.01,617.13,400.62,-210.04
24527,-0.06,0.06,-0.0,0.19,0.22,-1.02,624.17,407.9,-195.23
24556,-0.06,-0.0,0.12,0.2,0.22,-1.02,630.07,409.21,-193.94
24567,-0.06,0.12,-0.0,0.2,0.23,-1.01,616.9,407.7,-204.46
24596,-0.06,0.06,0.06,0.2,0.22,-1.0,618.36,402.46,-196.67
24607,0.0,-0.0,-0.12,0.2,0.22,-1.02,610.6,416.46,-193.4
24636,0.0,-0.0,-0.0,0.19,0.22,-1.02,616.79,407.95,-197.78
24647,-0.06,0.12,-0.0,0.19,0.23,-1.03,601.98,405.48,-197.66
24676,0.0,0.06,0.06,0.2,0.22,-1.01,608.32,392.68,-206.19
24687,-0.06,0.06,0.06,0.2,0.23,-1.02,616.7,408.14,-192.45
24716,0.0,-0.0,0.06,0.19,0.23,-1.0,610.65,407.17,-184.4
24727,-0.12,0.06,-0.0,0.2,0.22,-1.03,621.3,405.11,-197.95
24796,0.0,-0.0,0.12,0.19,0.22,-1.02,616.88,401.16,-195.36
24806,0.06,0.12,-0.0,0.2,0.23,-0.99,609.27,417.48,-204.0
24835,0.0,-0.0,0.06,0.19,0.22,-1.01,625.79,402.32,-196.78
24846,0.0,-0.06,0.06,0.2,0.22,-1.01,618.62,399.27,-208.77
24875,-0.06,0.12,0.06,0.2,0.21,-1.01,617.23,384.64,-195.94
24886,0.12,-0.0,0.06,0.2,0.22,-1.0,606.48,410.56,-206.87
24915,-0.06,0.06,0.12,0.2,0.23,-1.01,600.58,402.7,-199.07
24926,-0.12,0.06,0.12,0.19,0.22,-1.01,609.0,418.07,-187.99
24955,-0.06,-0.06,0.12,0.2,0.22,-1.01,610.95,409.14,-205.65
24966,0.06,-0.06,-0.0,0.2,0.22,-1.01,607.58,414.01,-186.78
24995,-0.06,0.12,0.06,0.2,0.23,-1.01,615.06,416.38,-193.47
25006,0.0,-0.06,-0.12,0.19,0.22,-1.01,616.64,405.63,-185.87
25035,0.06,0.06,0.06,0.2,0.22,-1.01,616.9,398.5,-192.79
25046,-0.06,-0.0,-0.0,0.19,0.22,-1.0,615.26,406.74,-193.81
25075,0.06,0.06,-0.0,0.2,0.22,-1.01,602.05,394.81,-188.71
25086,-0.06,0.06,0.12,0.2,0.23,-1.02,616.84,410.45,-204.36
25115,-0.12,0.06,0.06,0.2,0.22,-1.0,621.0,417.59,-194.84
25126,-0.06,0.06,0.06,0.19,0.22,-1.0,595.68,415.57,-187.89
25155,0.0,-0.0,0.06,0.2,0.22,-1.01,616.89,410.36,-207.03
25166,-0.06,0.06,0.06,0.2,0.22,-1.0,627.14,407.84,-195.27
25195,-0.06,0.06,0.06,0.19,0.22,-1.02,621.24,407.86,-197.85
25206,0.0,-0.0,-0.06,0.2,0.23,-1.0,618.32,406.49,-199.19
25235,-0.12,-0.0,0.06,0.2,0.22,-1.01,618.38,399.8,-194.1
25246,-0.06,-0.0,0.18,0.2,0.22,-1.0,616.73,410.7,-197.69
25275,0.06,-0.0,0.12,0.2,0.23,-1.01,620.8,427.23,-194.5
25286,0.06,-0.18,-0.0,0.2,0.22,-1.01,622.48,418.89,-196.15
25315,0.0,0.06,-0.0,0.2,0.22,-1.01,609.27,408.28,-192.34
25326,0.0,-0.0,-0.12,0.19,0.23,-1.0,615.35,397.35,-187.48
25355,-0.06,0.06,-0.0,0.19,0.22,-1.01,615.44,402.42,-199.29
25448,-0.12,0.12,0.06,0.2,0.22,-1.01,618.22,409.34,-196.42
25463,-0.06,0.06,-0.0,0.2,0.22,-1.0,618.32,406.49,-199.19
25478,0.06,-0.0,-0.06,0.19,0.23,-1.0,609.7,391.57,-198.26
25507,0.0,-0.0,0.06,0.2,0.22,-1.01,621.35,405.01,-200.62
25518,0.06,-0.06,-0.0,0.19,0.23,-1.01,613.83,405.35,-195.17
25547,0.06,0.12,-0.06,0.2,0.23,-1.02,610.63,409.83,-186.97
25558,-0.06,0.06,0.18,0.19,0.22,-1.01,624.36,400.92,-198.14
25587,-0.06,0.12,-0.0,0.19,0.22,-1.01,610.79,400.29,-184.64
25598,-0.06,0.06,0.06,0.19,0.22,-1.01,616.94,407.6,-207.13
25627,-0.06,0.12,0.06,0.2,0.21,-1.0,615.51,406.21,-208.49
25638,0.0,-0.12,0.06,0.19,0.22,-1.01,615.19,406.89,-189.81
25667,0.06,-0.0,0.12,0.19,0.22,-1.01,617.98,413.81,-186.94
25678,0.0,-0.0,0.12,0.2,0.21,-1.02,621.06,414.84,-194.94
25707,0.12,-0.0,-0.12,0.2,0.21,-1.01,627.53,391.23,-198.53
25718,0.0,-0.0,0.06,0.19,0.22,-1.0,618.18,409.44,-193.76
25747,0.06,-0.0,-0.0,0.2,0.22,-1.01,613.83,405.35,-195.17
25758,0.06,-0.06,0.12,0.2,0.22,-1.0,621.24,407.86,-197.85
25787,-0.06,0.06,-0.06,0.19,0.23,-1.01,615.46,397.11,-194.15
25798,-0.06,0.06,-0.0,0.2,0.22,-1.02,608.08,397.15,-196.71
25827,0.0,0.12,-0.0,0.2,0.22,-1.02,616.84,401.26,-192.69
25838,0.0,-0.0,0.06,0.2,0.22,-1.0,615.15,416.18,-198.8
25867,0.18,-0.06,-0.0,0.19,0.22,-1.01,606.37,410.8,-200.2
25878,0.0,-0.12,0.18,0.2,0.22,-0.99,622.65,415.9,-202.92
25907,-0.18,0.06,-0.0,0.19,0.22,-1.0,624.4,400.82,-200.81
25918,-0.12,0.12,-0.06,0.2,0.22,-1.02,621.1,414.74,-197.61
25947,-0.06,0.06,-0.0,0.2,0.23,-1.01,624.26,407.71,-200.57
25958,0.0,-0.0,0.06,0.2,0.22,-1.01,609.46,405.24,-200.44
25987,0.0,-0.0,-0.0,0.19,0.21,-1.0,615.32,413.19,-205.57
25998,0.06,-0.0,-0.06,0.2,0.23,-1.0,622.55,413.48,-193.68
26075,-0.06,0.12,-0.0,0.2,0.23,-1.01,618.37,397.2,-190.19
26085,-0.06,0.06,-0.12,0.19,0.22,-1.02,620.96,417.69,-192.17
26114,0.06,-0.0,0.06,0.19,0.22,-1.02,625.81,408.86,-205.88
26125,-0.06,0.06,0.06,0.2,0.22,-1.01,610.89,402.7,-193.89
26154,0.0,-0.0,-0.0,0.2,0.22,-1.02,607.83,416.08,-205.36
26165,-0.12,0.06,0.06,0.2,0.22,-1.01,607.93,409.3,-202.94
26194,0.06,-0.06,0.12,0.2,0.22,-1.01,609.3,410.84,-197.57
26205,-0.06,0.06,-0.0,0.2,0.22,-1.0,601.83,415.02,-199.98
26234,0.0,-0.0,0.06,0.19,0.22,-1.01,623.86,417.78,-188.22
26245,0.06,-0.0,0.12,0.2,0.23,-1.0,613.91,401.22,-195.31
26274,-0.06,0.06,-0.06,0.19,0.21,-1.0,622.64,418.55,-205.49
26285,0.0,-0.0,0.06,0.2,0.23,-1.03,630.46,401.79,-208.86
26314,-0.12,0.12,-0.0,0.2,0.23,-1.01,618.27,409.24,-199.09
26325,0.0,-0.0,-0.12,0.2,0.22,-1.0,624.07,414.69,-197.65
26354,0.0,-0.0,-0.06,0.19,0.21,-1.01,610.66,403.19,-180.54
26365,-0.06,0.12,-0.06,0.2,0.23,-1.02,610.8,406.83,-193.74
26394,0.06,-0.12,0.06,0.2,0.22,-1.03,610.85,406.73,-196.41
26405,-0.06,0.06,0.06,0.2,0.22,-1.0,633.13,408.96,-199.32
26434,0.06,-0.12,0.18,0.2,0.23,-1.02,607.89,413.33,-205.46
26445,-0.06,-0.0,0.12,0.19,0.22,-1.0,600.35,413.72,-198.68
26474,-0.06,0.18,-0.0,0.2,0.23,-1.02,618.07,418.88,-198.75
26485,0.0,-0.0,-0.06,0.19,0.22,-1.01,615.29,409.3,-199.05
26514,-0.06,0.06,0.06,0.2,0.22,-1.0,601.98,410.74,-204.13
26525,-0.06,0.06,-0.0,0.19,0.23,-1.0,615.28,413.29,-202.9
26554,0.06,-0.0,-0.0,0.19,0.22,-1.0,609.61,400.96,-204.59
26565,-0.06,0.06,-0.0,0.2,0.23,-1.0,616.43,417.92,-188.1
26594,-0.06,0.06,0.12,0.21,0.22,-1.0,622.55,413.48,-193.68
26605,-0.06,0.06,0.12,0.19,0.23,-1.01,613.72,414.79,-200.16
26634,-0.12,0.06,0.12,0.19,0.22,-0.99,616.57,411.04,-188.35
26708,0.06,-0.06,-0.0,0.19,0.22,-1.01,615.39,402.52,-196.62
26718,-0.06,0.12,0.06,0.2,0.23,-1.03,611.16,396.85,-203.42
26747,-0.06,0.06,0.06,0.21,0.22,-1.02,607.82,409.54,-196.27
26758,0.0,-0.0,0.06,0.19,0.23,-0.99,620.84,417.93,-185.5
26787,-0.06,0.06,0.06,0.19,0.22,-1.0,615.42,406.4,-203.15
26798,0.0,-0.06,0.12,0.2,0.22,-0.99,607.48,426.06,-195.68
26827,-0.06,0.12,-0.0,0.2,0.23,-1.01,606.5,407.9,-204.3
26838,-0.06,0.12,0.18,0.2,0.22,-1.02,606.08,415.37,-188.04
26867,0.06,-0.06,0.12,0.2,0.22,-1.01,618.41,402.36,-199.34
26878,-0.06,0.06,0.18,0.19,0.23,-1.01,607.58,414.01,-186.78
26907,0.06,0.06,0.06,0.2,0.23,-1.0,625.5,418.74,-198.86
26918,-0.06,0.06,0.06,0.19,0.23,-1.02,615.32,413.19,-205.57
26947,0.06,-0.06,-0.06,0.19,0.23,-1.01,615.35,402.61,-193.95
26958,-0.06,0.06,-0.0,0.2,0.22,-1.01,616.96,404.95,-204.55
26987,-0.06,-0.0,-0.06,0.2,0.22,-1.01,615.34,400.01,-190.05
26998,-0.12,0.06,-0.0,0.19,0.22,-1.01,615.31,406.65,-196.48
27027,0.06,-0.0,-0.06,0.2,0.22,-1.0,613.6,411.1,-188.3
27038,-0.06,0.06,0.06,0.21,0.21,-1.01,618.42,408.9,-208.43
27067,0.0,-0.0,0.12,0.2,0.22,-1.02,610.71,413.61,-196.17
27078,-0.06,0.06,-0.0,0.19,0.22,-1.01,609.25,410.94,-194.91
27107,0.0,-0.06,-0.0,0.19,0.22,-1.02,600.7,399.8,-203.17
27118,0.0,-0.0,0.06,0.2,0.22,-1.0,614.03,404.91,-207.18
27147,0.0,-0.0,-0.06,0.2,0.23,-1.01,618.11,409.59,-189.75
27158,0.0,-0.0,0.12,0.2,0.22,-1.01,606.44,410.65,-204.2
27187,0.0,-0.06,-0.0,0.2,0.22,-0.99,615.31,406.65,-196.48
27198,0.0,0.06,0.12,0.2,0.22,-1.02,613.6,411.1,-188.3
27227,0.0,-0.0,0.12,0.2,0.22,-1.01,609.56,398.45,-198.01
27238,0.0,-0.0,-0.0,0.2,0.22,-1.01,610.68,409.73,-189.64
27267,0.06,-0.06,0.06,0.19,0.23,-1.01,618.25,413.23,-202.95
27340,0.0,0.06,-0.0,0.2,0.22,-1.01,606.9,388.63,-204.98
27355,0.0,-0.06,0.12,0.2,0.22,-1.01,605.94,422.25,-187.8
27370,-0.12,0.12,0.06,0.19,0.22,-1.0,615.66,396.67,-206.16
27399,-0.06,0.18,0.12,0.2,0.22,-1.01,609.34,401.55,-188.58
27410,-0.06,0.06,0.18,0.2,0.22,-1.01,611.25,392.72,-203.57
27439,0.12,-0.0,0.12,0.19,0.22,-1.0,621.15,408.05,-192.51
27450,-0.06,0.12,0.12,0.19,0.23,-1.01,609.14,411.18,-188.23
27479,-0.06,0.18,0.06,0.19,0.23,-1.01,618.12,406.93,-187.18
27490,0.0,-0.0,-0.0,0.2,0.23,-1.01,610.84,409.39,-198.98
27519,0.06,-0.06,-0.0,0.2,0.22,-1.02,609.26,405.68,-188.43
27530,-0.06,0.06,-0.0,0.19,0.22,-1.01,621.24,407.86,-197.85
27559,-0.06,-0.0,-0.0,0.19,0.22,-1.02,623.89,421.67,-194.74
27570,0.0,-0.12,0.12,0.21,0.23,-1.0,604.86,406.94,-193.65
27599,0.0,-0.06,0.06,0.2,0.22,-1.0,616.84,401.26,-192.69
27610,-0.12,0.06,0.06,0.2,0.22,-1.02,621.35,405.01,-200.62
27639,-0.06,-0.0,-0.0,0.2,0.22,-1.0,615.46,406.3,-205.82
27650,0.12,-0.0,-0.06,0.2,0.22,-1.0,613.63,414.98,-194.83
27679,0.06,-0.0,0.06,0.2,0.22,-1.0,606.44,405.39,-197.72
27690,0.0,-0.0,-0.0,0.2,0.21,-1.01,616.68,410.8,-195.02
27719,0.0,-0.0,-0.0,0.2,0.23,-1.0,616.8,414.49,-206.88
27730,0.0,-0.06,0.06,0.18,0.22,-1.0,630.3,402.13,-199.52
27759,-0.06,-0.0,0.12,0.19,0.22,-1.02,610.95,399.95,-193.98
27770,0.0,-0.12,0.12,0.2,0.22,-1.01,610.49,416.71,-186.73
27799,0.0,-0.0,0.12,0.2,0.22,-1.02,622.82,402.37,-196.74
27810,-0.12,0.18,0.12,0.2,0.22,-1.01,618.25,413.23,-202.95
27839,0.0,-0.12,-0.06,0.2,0.23,-1.01,606.2,415.13,-194.71
27850,-0.06,0.06,0.06,0.19,0.22,-1.01,602.23,401.01,-207.14
27879,-0.06,0.18,-0.0,0.19,0.23,-1.02,623.98,421.47,-200.08
27890,-0.06,0.12,-0.06,0.19,0.22,-1.0,629.91,418.75,-196.26
27967,0.18,-0.0,-0.06,0.2,0.22,-1.01,618.22,409.34,-196.42
27978,-0.06,0.3,-0.06,0.2,0.22,-1.01,607.62,413.92,-189.45
28006,-0.06,-0.06,-0.12,0.19,0.22,-1.01,613.57,417.74,-194.73
28017,0.0,-0.0,-0.0,0.19,0.21,-1.0,618.18,413.37,-198.95
28046,-0.12,0.06,-0.06,0.2,0.22,-1.01,590.36,397.25,-203.11
28057,0.06,-0.06,0.06,0.2,0.23,-1.0,610.71,413.61,-196.17
28086,0.0,-0.06,-0.0,0.2,0.23,-1.01,621.29,407.76,-200.52
28097,-0.06,0.12,-0.0,0.19,0.23,-1.01,618.42,399.71,-196.77
28126,0.06,-0.0,-0.0,0.2,0.22,-1.03,606.98,384.5,-205.13
28137,0.0,0.12,-0.0,0.2,0.22,-1.02,625.65,400.0,-184.87
28166,0.0,-0.06,0.06,0.2,0.23,-1.0,610.85,406.73,-196.41
28177,-0.06,0.06,-0.0,0.2,0.22,-1.03,609.36,408.09,-197.67
28206,0.06,-0.12,-0.0,0.19,0.22,-1.0,607.92,406.69,-199.03
28217,0.06,-0.0,0.12,0.2,0.22,-1.01,609.31,408.19,-195.0
28246,0.0,0.06,0.12,0.2,0.22,-1.01,607.77,409.64,-193.6
28257,0.0,-0.0,-0.0,0.19,0.22,-1.01,609.21,414.97,-197.43
28286,0.0,-0.12,-0.06,0.19,0.22,-1.01,606.44,405.39,-197.72
28297,-0.06,0.06,-0.06,0.2,0.22,-1.02,613.92,405.15,-200.51
28326,0.12,-0.06,0.06,0.2,0.22,-1.01,602.47,391.27,-210.15
28337,0.06,-0.12,-0.0,0.19,0.23,-1.0,627.19,407.75,-197.94
28366,0.06,-0.06,-0.0,0.2,0.22,-1.01,622.58,416.04,-198.92
28377,-0.06,0.06,0.18,0.2,0.22,-1.02,614.9,416.72,-184.13
28406,-0.12,0.06,0.06,0.2,0.22,-1.01,627.44,400.62,-204.86
28417,-0.06,0.06,-0.0,0.2,0.23,-1.01,622.52,409.6,-187.15
28446,0.12,-0.06,-0.0,0.2,0.23,-1.0,610.85,406.73,-196.41
28457,0.0,-0.0,0.12,0.19,0.23,-0.99,607.68,416.42,-196.02
28486,0.06,-0.0,0.06,0.2,0.21,-1.0,630.21,406.26,-199.37
28497,0.06,-0.12,-0.06,0.19,0.22,-1.0,615.31,406.65,-196.48
28526,0.0,-0.0,0.06,0.19,0.22,-1.01,609.3,410.84,-197.57
28598,0.0,-0.0,-0.0,0.19,0.22,-1.0,609.6,398.35,-200.68
28608,-0.12,0.06,-0.0,0.2,0.22,-1.0,611.11,408.8,-214.99
28637,-0.06,0.06,-0.0,0.19,0.23,-1.0,616.5,421.71,-197.3
28648,0.0,0.06,0.06,0.2,0.23,-1.02,616.84,405.19,-197.88
28677,-0.12,-0.06,-0.0,0.19,0.22,-1.0,615.19,406.89,-189.81
28688,0.06,0.12,0.06,0.2,0.23,-1.01,621.15,414.65,-200.28
28717,-0.06,0.12,-0.06,0.21,0.23,-1.01,610.96,415.68,-214.75
28728,0.12,-0.0,0.06,0.19,0.22,-1.03,625.85,399.56,-196.88
28757,0.0,-0.06,0.12,0.19,0.22,-1.0,618.36,402.46,-196.67
28768,0.06,-0.0,0.06,0.2,0.23,-1.0,624.42,398.17,-198.24
28797,-0.06,0.06,-0.06,0.19,0.22,-1.01,624.27,401.12,-192.8
28808,0.0,-0.06,0.06,0.19,0.23,-1.01,613.93,416.96,-216.08
28837,-0.18,0.06,-0.18,0.2,0.22,-1.01,618.32,406.49,-199.19
28848,-0.06,0.12,0.06,0.2,0.22,-1.01,614.07,400.88,-204.66
28877,-0.12,0.06,-0.06,0.19,0.22,-1.01,610.69,416.27,-198.74
28888,0.0,0.06,0.18,0.19,0.22,-1.01,621.49,398.13,-200.86
28917,0.0,-0.0,-0.0,0.2,0.22,-1.02,615.18,400.35,-180.71
28928,0.0,-0.06,-0.0,0.2,0.22,-1.0,615.2,409.5,-193.71
28957,0.0,-0.0,0.12,0.2,0.23,-1.01,615.16,413.53,-196.23
28968,-0.06,0.12,-0.0,0.2,0.21,-1.02,605.0,409.26,-205.56
28997,-0.06,0.06,0.06,0.19,0.22,-1.01,607.97,400.0,-193.94
29008,0.0,-0.06,-0.0,0.19,0.21,-1.02,624.26,407.71,-200.57
29037,0.0,-0.06,0.06,0.19,0.21,-1.01,606.44,401.46,-192.53
29048,0.06,-0.06,0.06,0.19,0.22,-1.0,606.23,408.49,-188.29
29077,0.0,-0.0,0.12,0.19,0.22,-1.0,621.3,405.11,-197.95
29088,-0.06,0.18,0.06,0.21,0.23,-1.02,615.39,402.52,-196.62
29117,-0.06,-0.0,0.06,0.19,0.23,-1.01,618.58,399.37,-206.11
29128,0.0,0.06,-0.0,0.19,0.22,-1.0,624.53,397.92,-204.91
29157,-0.12,0.06,0.18,0.2,0.22,-1.0,610.92,415.78,-212.08
29230,-0.06,0.12,-0.06,0.2,0.21,-1.0,616.88,401.16,-195.36
29240,0.0,-0.0,0.12,0.2,0.21,-0.99,622.72,409.16,-199.16
29269,-0.06,0.12,-0.0,0.2,0.23,-1.0,614.16,400.68,-209.99
29280,0.0,-0.0,0.06,0.2,0.23,-1.01,604.87,413.48,-202.75
29309,0.06,-0.06,-0.0,0.2,0.21,-1.0,609.27,408.28,-192.34
29320,-0.06,0.06,0.12,0.2,0.22,-1.01,613.78,414.64,-204.17
29349,-0.12,0.06,0.12,0.2,0.23,-1.01,621.24,407.86,-197.85
29360,0.0,-0.06,0.06,0.19,0.22,-1.02,615.2,409.5,-193.71
29389,-0.12,0.06,-0.0,0.21,0.22,-1.01,617.1,398.07,-204.8
29400,0.0,-0.0,-0.0,0.2,0.23,-1.0,620.99,411.05,-185.75
29429,0.0,0.06,0.18,0.19,0.22,-1.01,622.55,413.48,-193.68
29440,-0.06,0.06,0.06,0.19,0.22,-1.01,622.49,416.24,-193.58
29469,0.0,0.06,0.06,0.2,0.23,-1.01,621.56,397.98,-204.87
29480,0.0,-0.0,0.18,0.2,0.22,-1.0,606.68,391.72,-195.54
29509,0.0,-0.06,-0.0,0.19,0.21,-1.01,622.98,402.03,-206.08
29520,-0.06,0.06,0.12,0.2,0.22,-1.01,615.14,409.64,-189.71
29549,-0.06,0.06,-0.0,0.19,0.22,-1.01,625.95,396.71,-199.64
29560,0.06,-0.06,0.12,0.19,0.23,-1.0,613.86,407.91,-200.41
29589,0.06,-0.06,-0.0,0.2,0.22,-1.01,613.86,407.91,-200.41
29600,0.0,-0.06,0.12,0.19,0.22,-1.01,618.23,406.69,-193.85
29629,0.12,-0.06,-0.06,0.19,0.23,-1.01,616.64,410.89,-192.35
29640,-0.06,0.06,0.06,0.2,0.22,-1.01,600.53,402.8,-196.4
29669,-0.18,0.12,0.06,0.2,0.22,-1.0,617.98,419.08,-193.41
29680,0.0,-0.06,-0.0,0.19,0.22,-1.01,621.19,410.61,-197.75
29709,0.0,0.06,-0.06,0.18,0.22,-1.01,605.22,396.97,-203.33
29720,0.0,0.06,-0.0,0.2,0.22,-1.0,615.26,415.94,-205.48
29749,0.06,-0.06,-0.06,0.19,0.22,-1.02,610.95,409.14,-205.65
29760,0.12,-0.0,0.12,0.19,0.22,-1.01,613.72,408.2,-192.4
29789,0.0,-0.0,0.06,0.2,0.22,-1.02,622.71,413.14,-203.02
29861,0.0,-0.0,-0.12,0.2,0.22,-1.0,624.22,407.8,-197.9
29872,0.0,-0.0,0.06,0.19,0.22,-1.01,606.4,405.49,-195.06
29900,0.0,-0.0,0.06,0.2,0.22,-1.01,606.83,394.04,-207.46
29911,-0.12,0.12,0.12,0.19,0.22,-1.0,609.4,407.99,-200.34
29940,0.06,-0.0,-0.06,0.19,0.22,-1.02,613.83,405.35,-195.17
29951,0.0,-0.0,0.06,0.2,0.22,-1.02,613.78,405.44,-192.5
29980,0.06,-0.06,-0.06,0.19,0.22,-1.01,616.69,414.73,-200.21
29991,-0.06,0.06,-0.0,0.19,0.23,-1.0,615.2,409.5,-193.71
30020,0.06,0.06,0.12,0.2,0.23,-1.01,615.35,406.55,-199.15
30031,0.0,0.06,0.12,0.2,0.22,-1.0,613.61,417.64,-197.4
30060,0.3,-0.18,0.12,0.19,0.23,-1.01,618.62,399.27,-208.77
30071,-0.18,0.18,0.18,0.2,0.23,-1.02,613.6,411.1,-188.3
30100,0.0,-0.0,0.06,0.2,0.23,-1.01,613.87,405.25,-197.84
30111,-0.18,0.12,0.12,0.2,0.22,-1.0,611.0,397.19,-194.08
30140,-0.12,0.18,0.12,0.2,0.22,-1.01,610.29,426.34,-186.39
30151,-0.06,0.06,0.12,0.19,0.22,-1.0,623.98,414.88,-192.32
30180,0.18,-0.06,0.06,0.19,0.22,-1.01,622.93,402.13,-203.41
30191,-0.12,0.06,-0.0,0.2,0.23,-1.0,615.36,409.16,-203.05
30220,0.0,0.06,0.12,0.2,0.23,-1.01,625.55,415.98,-198.96
30231,-0.12,0.12,0.12,0.19,0.21,-1.01,631.96,397.78,-205.02
30260,0.0,-0.0,-0.06,0.19,0.22,-1.01,633.42,392.54,-197.23
30271,0.0,-0.0,0.06,0.2,0.23,-1.0,622.82,402.37,-196.74
30300,-0.06,0.06,-0.0,0.2,0.22,-1.03,618.23,406.69,-193.85
30311,-0.12,0.18,0.12,0.19,0.21,-1.0,627.18,410.4,-200.51
30340,-0.06,0.18,-0.0,0.2,0.22,-1.0,615.49,399.67,-199.39
30351,0.06,-0.0,0.12,0.19,0.22,-1.01,609.2,408.43,-188.33
30380,0.0,-0.12,-0.06,0.2,0.22,-1.01,613.52,417.83,-192.06
30391,0.12,-0.0,-0.0,0.2,0.22,-1.0,606.44,401.46,-192.53
30420,-0.06,0.06,-0.0,0.21,0.23,-1.02,616.96,404.95,-204.55
30492,0.0,-0.12,0.06,0.2,0.22,-1.0,615.37,413.09,-208.24
30508,0.0,-0.06,0.06,0.2,0.22,-1.0,616.9,398.5,-192.79
30527,-0.06,0.06,0.06,0.19,0.23,-1.0,616.9,407.7,-204.46
30547,0.18,-0.12,0.06,0.2,0.22,-1.01,613.77,408.1,-195.07
30567,-0.06,0.24,0.06,0.2,0.22,-1.02,618.48,406.15,-208.53
30587,-0.12,0.24,0.12,0.2,0.23,-1.01,610.75,409.58,-193.64
30607,0.0,-0.18,-0.06,0.2,0.22,-1.01,609.54,401.11,-200.58
30627,-0.18,-0.0,-0.0,0.2,0.22,-1.01,609.6,394.42,-195.49
30647,-0.06,-0.06,0.06,0.19,0.22,-1.01,624.01,408.24,-185.89
30663,-0.18,0.12,0.06,0.2,0.23,-1.0,604.9,406.85,-196.32
30692,0.12,-0.0,0.06,0.19,0.23,-1.0,616.79,407.95,-197.78
30703,-0.06,0.06,-0.12,0.19,0.22,-1.01,609.01,415.41,-185.42
30732,0.0,-0.0,0.12,0.2,0.22,-1.01,607.96,402.66,-196.51
30743,0.0,-0.12,-0.06,0.2,0.21,-1.0,615.35,406.55,-199.15
30772,-0.06,0.06,0.12,0.19,0.22,-1.02,630.35,399.38,-199.61
30783,0.0,-0.0,-0.0,0.2,0.22,-1.02,602.1,405.23,-204.33
30812,-0.06,-0.12,-0.0,0.2,0.23,-1.01,621.34,401.07,-195.43
30823,-0.06,0.12,-0.06,0.2,0.22,-1.01,616.64,410.89,-192.35
30852,0.0,-0.0,-0.18,0.19,0.22,-1.02,615.35,402.61,-193.95
30863,0.0,-0.06,-0.06,0.2,0.22,-1.01,622.59,413.39,-196.35
30892,-0.06,0.06,0.06,0.19,0.22,-1.01,610.89,406.63,-199.08
30903,-0.12,0.12,0.24,0.2,0.22,-1.01,622.69,406.6,-193.92
30932,0.18,-0.24,0.06,0.2,0.22,-1.02,615.44,402.42,-199.29
30943,-0.06,0.18,0.12,0.21,0.23,-1.01,631.49,408.0,-188.67
30972,0.06,0.06,-0.06,0.19,0.23,-1.01,610.96,406.49,-203.08
30983,-0.12,-0.0,0.12,0.19,0.22,-1.0,618.27,409.24,-199.09
31012,0.0,-0.0,0.12,0.2,0.22,-1.01,607.71,409.79,-189.6
31023,0.0,-0.0,0.12,0.2,0.22,-1.0,616.98,394.38,-192.93
31052,-0.12,0.06,0.12,0.2,0.22,-1.01,627.32,394.32,-189.09
31129,0.0,-0.0,0.12,0.19,0.23,-1.02,622.49,416.24,-193.58
31140,0.06,-0.18,-0.12,0.2,0.23,-1.01,627.47,393.98,-198.43
31168,0.0,-0.06,0.06,0.21,0.23,-1.02,618.22,409.34,-196.42
31179,0.06,-0.06,0.06,0.2,0.22,-1.01,616.84,405.19,-197.88
31208,-0.06,0.06,-0.12,0.2,0.21,-1.02,604.69,409.94,-186.88
31219,0.0,-0.06,-0.0,0.2,0.22,-1.02,618.27,409.24,-199.09
31248,-0.18,0.12,0.06,0.2,0.22,-1.0,613.66,408.34,-188.4
31259,-0.06,0.06,0.18,0.2,0.22,-1.02,609.64,394.32,-198.16
31288,-0.06,0.06,0.12,0.19,0.22,-1.0,607.48,426.06,-195.68
31299,0.06,-0.0,0.06,0.21,0.23,-1.02,617.13,400.62,-210.04
31328,0.12,0.12,-0.0,0.19,0.23,-1.02,609.46,410.5,-206.92
31328,0.12,0.12,-0.0,0.2,0.23,-1.05,241.64,774.85,155.05
31373,0.06,-0.06,0.18,0.2,0.22,-1.01,618.18,409.44,-193.76
31388,0.06,-0.0,0.06,0.19,0.22,-1.0,616.9,407.7,-204.46
31403,-0.06,0.06,0.18,0.2,0.21,-1.01,606.38,408.15,-197.63
31432,-0.12,0.06,-0.0,0.2,0.22,-1.01,618.52,402.12,-206.01
31443,0.0,-0.0,0.18,0.2,0.22,-1.01,613.81,408.0,-197.74
31472,-0.12,0.18,-0.06,0.2,0.21,-1.0,622.72,409.16,-199.16
31483,-0.18,0.06,0.12,0.19,0.22,-1.02,608.07,402.42,-203.18
31512,0.06,-0.0,-0.06,0.2,0.22,-1.01,618.33,409.1,-203.1
31523,-0.06,0.06,-0.0,0.19,0.22,-1.02,624.23,414.34,-206.99
31552,-0.06,0.12,0.12,0.21,0.22,-1.01,607.92,406.69,-199.03
31563,-0.06,0.06,-0.12,0.21,0.22,-1.01,597.32,416.53,-198.53
31592,-0.06,0.18,0.12,0.19,0.22,-1.01,606.5,407.9,-204.3
31603,-0.12,0.12,-0.0,0.2,0.22,-1.01,607.68,416.42,-196.02
31632,0.06,-0.0,-0.06,0.2,0.22,-1.01,607.97,400.0,-193.94
31643,-0.06,0.12,0.12,0.2,0.23,-1.02,607.98,409.2,-205.61
31672,0.06,-0.24,-0.0,0.19,0.23,-1.03,616.73,401.5,-186.02
31683,0.0,-0.06,-0.0,0.2,0.23,-1.02,608.18,399.56,-205.95
31760,-0.06,0.12,-0.0,0.2,0.22,-1.0,617.06,407.36,-213.8
31770,0.06,-0.06,-0.0,0.2,0.23,-1.0,607.86,409.44,-198.94
31799,0.0,-0.0,-0.12,0.2,0.22,-1.01,618.11,409.59,-189.75
31810,0.0,-0.0,0.06,0.2,0.22,-1.01,608.06,399.81,-199.28
31839,-0.06,0.06,-0.06,0.19,0.22,-1.01,609.47,407.84,-204.34
31850,0.06,0.12,0.06,0.2,0.22,-1.01,625.6,406.69,-189.96
31879,-0.12,0.06,0.18,0.2,0.22,-1.01,618.14,413.47,-196.28
31890,-0.06,0.12,-0.0,0.2,0.22,-1.0,615.64,392.78,-199.63
31919,0.0,-0.0,-0.12,0.2,0.22,-1.01,621.24,407.86,-197.85
31930,0.06,0.06,0.06,0.2,0.22,-1.01,607.77,409.64,-193.6
31959,0.0,-0.0,0.06,0.2,0.22,-1.02,622.66,402.72,-187.4
31970,-0.12,0.06,-0.0,0.21,0.22,-1.01,624.11,410.65,-195.13
31999,0.0,-0.12,0.06,0.2,0.22,-1.01,633.17,399.67,-190.32
32010,-0.06,-0.12,0.12,0.2,0.22,-1.01,611.01,406.39,-205.75
32039,-0.06,0.06,-0.0,0.2,0.22,-1.0,615.25,409.4,-196.38
32050,-0.06,0.06,-0.0,0.19,0.23,-1.0,618.52,396.86,-199.53
32079,0.0,0.06,0.06,0.2,0.22,-1.01,618.27,409.24,-199.09
32090,-0.06,0.12,0.06,0.2,0.23,-1.01,627.55,397.77,-207.62
32119,-0.12,0.06,-0.06,0.2,0.22,-1.02,621.19,410.61,-197.75
32130,0.0,-0.0,-0.0,0.2,0.23,-1.01,615.4,399.86,-194.05
32159,-0.06,0.12,0.12,0.2,0.23,-1.0,622.85,406.26,-203.26
32170,-0.06,0.06,0.06,0.2,0.22,-1.01,613.52,417.83,-192.06
32199,-0.06,0.06,0.12,0.2,0.22,-1.01,621.36,407.62,-204.52
32210,0.0,-0.06,-0.0,0.2,0.23,-1.01,610.59,413.86,-189.49
32239,0.0,-0.0,-0.06,0.21,0.22,-1.0,607.78,413.57,-198.79
32250,0.0,-0.06,0.18,0.19,0.22,-1.02,606.15,415.22,-192.05
32279,0.06,-0.0,0.06,0.2,0.22,-1.0,610.16,430.57,-183.57
32290,-0.06,0.06,-0.0,0.2,0.22,-1.01,610.96,406.49,-203.08
32319,0.0,-0.0,-0.0,0.2,0.22,-1.02,611.32,385.99,-199.81
32391,0.0,-0.06,-0.0,0.19,0.22,-0.99,607.92,406.69,-199.03
32401,-0.06,0.06,-0.06,0.2,0.22,-1.01,621.26,405.2,-195.28
32430,-0.06,0.06,0.12,0.2,0.22,-1.02,611.05,397.1,-196.75
32441,0.24,-0.0,0.06,0.19,0.22,-1.01,615.05,419.03,-196.04
32470,0.18,-0.06,-0.0,0.2,0.23,-1.01,610.74,406.98,-189.74
32481,0.12,-0.18,-0.0,0.19,0.22,-1.0,613.96,401.12,-197.98
32510,0.06,-0.18,0.06,0.2,0.22,-1.0,627.29,404.9,-200.71
32521,0.0,0.06,0.06,0.2,0.22,-1.01,630.25,402.23,-196.85
32550,0.0,-0.06,0.12,0.2,0.21,-1.01,613.83,405.35,-195.17
32561,-0.06,0.18,0.12,0.2,0.23,-1.01,615.42,406.4,-203.15
32590,0.0,-0.0,0.06,0.2,0.22,-1.0,613.5,408.69,-179.06
32601,-0.06,0.06,0.06,0.2,0.22,-1.01,627.14,407.84,-195.27
32630,0.0,0.06,-0.0,0.2,0.22,-1.01,606.68,391.72,-195.54
32641,-0.06,0.06,-0.0,0.19,0.22,-0.99,620.91,421.72,-194.7
32670,-0.06,0.06,0.18,0.2,0.21,-1.01,624.12,414.59,-200.32
32681,-0.06,0.12,0.06,0.2,0.23,-1.01,606.28,405.73,-188.38
32710,0.0,-0.12,-0.06,0.2,0.22,-1.01,609.06,424.51,-199.76
32721,0.0,-0.06,-0.06,0.2,0.22,-1.0,622.94,406.06,-208.6
32750,-0.06,0.18,-0.0,0.2,0.22,-1.01,605.1,402.47,-203.14
32761,0.0,0.06,-0.18,0.19,0.22,-1.0,615.0,419.13,-193.37
32790,0.0,-0.0,0.06,0.2,0.22,-1.01,622.64,413.29,-199.01
32801,-0.12,0.06,0.06,0.2,0.22,-1.01,616.96,404.95,-204.55
32830,0.0,-0.0,0.18,0.2,0.24,-1.0,616.63,408.29,-188.44
32841,0.12,-0.0,-0.0,0.2,0.22,-1.0,625.84,402.22,-199.45
32870,-0.12,0.12,0.06,0.2,0.22,-1.03,625.84,402.22,-199.45
32881,-0.06,0.12,0.12,0.2,0.22,-1.01,622.58,416.04,-198.92
32910,0.0,-0.12,0.06,0.19,0.23,-1.01,615.45,399.76,-196.72
32921,0.0,-0.0,-0.0,0.19,0.22,-1.01,611.25,392.72,-203.57
32950,-0.06,0.06,0.06,0.19,0.21,-1.01,634.72,410.02,-207.3
33023,-0.12,0.12,-0.06,0.2,0.22,-1.01,618.26,400.05,-187.43
33033,0.0,-0.0,0.12,0.2,0.22,-1.0,616.93,401.06,-198.03
33062,0.06,0.12,0.12,0.2,0.23,-1.02,616.94,398.41,-195.46
33073,-0.18,0.06,0.06,0.2,0.22,-1.01,610.99,399.85,-196.65
33102,0.0,-0.0,0.06,0.21,0.23,-1.01,618.27,409.24,-199.09
33113,-0.18,0.06,0.06,0.2,0.22,-1.0,613.51,415.23,-188.16
33142,0.06,-0.06,-0.06,0.19,0.22,-1.01,615.35,402.61,-193.95
33153,-0.06,-0.0,-0.0,0.19,0.22,-1.01,618.42,399.71,-196.77
33182,-0.12,0.06,0.12,0.2,0.22,-1.01,606.44,405.39,-197.72
33193,0.0,-0.0,0.06,0.19,0.21,-1.0,618.57,402.02,-208.68
33222,0.0,0.06,0.06,0.2,0.22,-1.01,613.87,410.51,-204.31
33233,-0.12,0.12,0.12,0.2,0.23,-1.0,616.49,415.17,-188.2
33262,-0.06,0.12,-0.0,0.2,0.22,-1.01,615.44,402.42,-199.29
33273,0.0,-0.0,-0.0,0.19,0.22,-1.01,627.2,405.09,-195.37
33302,-0.06,0.06,-0.0,0.19,0.23,-1.0,613.67,410.95,-192.3
33313,-0.12,0.06,-0.0,0.19,0.22,-1.01,627.09,410.6,-195.18
33342,0.12,-0.0,0.06,0.2,0.23,-1.01,613.51,415.23,-188.16
33353,0.06,-0.0,-0.12,0.19,0.22,-1.01,610.8,406.83,-193.74
33382,0.06,-0.0,0.06,0.21,0.23,-1.0,616.6,414.93,-194.87
33393,0.0,-0.06,-0.06,0.2,0.22,-1.01,609.12,415.17,-192.09
33422,0.06,-0.0,-0.0,0.2,0.21,-1.02,621.21,405.3,-192.61
33433,0.0,-0.06,-0.0,0.2,0.23,-1.0,610.69,416.27,-198.74
33462,0.0,-0.06,0.06,0.21,0.22,-1.01,624.57,397.83,-207.58
33473,-0.06,0.18,-0.0,0.2,0.22,-1.04,613.87,405.25,-197.84
33502,0.0,-0.0,0.06,0.19,0.23,-1.01,616.97,400.97,-200.7
33513,-0.06,0.06,0.18,0.19,0.22,-1.02,616.73,410.7,-197.69
33542,-0.06,0.18,0.12,0.2,0.22,-1.01,611.09,402.26,-205.9
33553,-0.06,0.12,-0.12,0.19,0.23,-1.02,609.53,405.09,-204.44
33582,-0.06,0.06,0.06,0.19,0.23,-1.01,605.15,397.11,-199.33
33651,0.0,0.12,0.12,0.2,0.23,-1.01,606.4,405.49,-195.06
33662,-0.06,0.06,-0.0,0.2,0.23,-1.02,618.27,409.24,-199.09
33685,-0.12,0.12,0.06,0.2,0.22,-1.0,615.26,415.94,-205.48
33705,-0.06,0.06,-0.0,0.2,0.23,-1.0,614.1,394.24,-198.23
33725,-0.06,0.12,-0.0,0.2,0.21,-1.0,615.28,413.29,-202.9
33745,0.0,-0.12,0.12,0.19,0.24,-1.0,616.74,417.24,-206.78
33765,-0.06,0.12,-0.06,0.19,0.21,-1.03,621.2,417.15,-206.85
33785,-0.12,0.06,-0.06,0.2,0.22,-1.01,631.89,397.93,-201.02
33805,-0.12,0.06,0.12,0.2,0.22,-1.01,618.48,402.22,-203.34
33825,-0.06,0.18,0.12,0.2,0.22,-1.0,625.75,402.41,-194.11
33845,-0.06,0.06,-0.0,0.2,0.22,-1.01,630.31,399.48,-196.95
33865,-0.06,0.06,-0.0,0.2,0.22,-1.01,601.91,410.89,-200.13
33885,0.0,-0.0,-0.0,0.2,0.22,-1.02,624.03,414.78,-194.98
33905,-0.12,0.06,0.12,0.19,0.22,-1.01,616.91,394.52,-188.93
33925,-0.12,0.12,-0.06,0.19,0.21,-1.01,613.6,411.1,-188.3
33945,-0.06,0.06,0.18,0.2,0.22,-1.0,618.16,402.9,-184.66
33965,0.06,-0.0,-0.0,0.2,0.23,-1.0,627.0,414.73,-195.03
33985,-0.06,-0.06,0.18,0.2,0.22,-1.0,607.83,416.08,-205.36
34005,-0.06,0.12,0.06,0.19,0.23,-1.01,625.82,406.2,-203.31
34025,-0.06,0.06,0.06,0.2,0.22,-1.01,627.38,400.77,-200.85
34045,-0.12,0.06,0.24,0.2,0.22,-1.01,613.87,405.25,-197.84
34065,0.0,-0.0,-0.0,0.19,0.22,-1.02,622.63,409.35,-193.82
34085,0.12,-0.0,0.06,0.19,0.23,-1.0,621.34,401.07,-195.43
34105,-0.06,0.06,0.12,0.2,0.22,-1.01,609.26,414.87,-200.1
34125,-0.06,0.12,0.06,0.2,0.22,-1.01,601.74,406.01,-182.98
34145,-0.06,-0.0,-0.0,0.2,0.22,-1.0,618.41,393.17,-187.67
34165,0.0,-0.0,-0.0,0.19,0.22,-1.01,609.61,400.96,-204.59
34185,-0.06,0.06,-0.06,0.2,0.22,-1.01,615.05,419.03,-196.04
34205,-0.06,-0.0,0.06,0.19,0.22,-1.02,622.72,409.16,-199.16
34282,0.0,-0.0,-0.12,0.19,0.22,-1.0,625.66,406.54,-193.97
34293,-0.06,0.06,-0.0,0.2,0.21,-1.01,615.39,402.52,-196.62
34322,0.0,-0.06,-0.0,0.2,0.22,-1.01,622.78,406.41,-199.26
34333,0.0,0.06,0.12,0.2,0.23,-1.01,614.07,400.88,-204.66
34362,0.06,-0.0,0.12,0.19,0.22,-1.0,609.5,401.21,-197.92
34373,0.12,-0.06,0.12,0.19,0.22,-1.01,609.47,407.84,-204.34
34402,-0.06,0.12,0.06,0.2,0.22,-1.0,609.41,405.34,-197.77
34413,0.0,0.06,-0.06,0.2,0.22,-1.02,613.75,401.56,-185.97
34442,-0.06,0.06,-0.06,0.2,0.21,-1.01,609.16,417.72,-197.33
34453,0.0,-0.0,0.12,0.19,0.23,-1.01,618.38,409.0,-205.76
34482,0.0,-0.0,0.06,0.2,0.22,-1.01,617.07,394.18,-198.27
34493,-0.06,0.12,0.06,0.2,0.22,-1.02,607.88,406.79,-196.36
34522,0.0,0.06,-0.0,0.2,0.22,-1.01,624.37,407.46,-207.24
34533,0.0,0.06,-0.12,0.2,0.22,-1.02,613.78,405.44,-192.5
34562,-0.06,0.12,0.06,0.19,0.23,-1.02,620.87,421.82,-192.03
34573,0.0,-0.0,-0.0,0.19,0.22,-1.01,624.12,414.59,-200.32
34602,0.0,-0.06,-0.0,0.2,0.22,-1.0,630.12,406.46,-194.03
34613,0.0,-0.06,0.06,0.2,0.22,-1.01,607.71,409.79,-189.6
34642,0.0,-0.06,-0.06,0.2,0.22,-1.02,613.87,405.25,-197.84
34653,-0.06,0.12,-0.0,0.19,0.22,-1.01,621.55,388.78,-193.2
34682,0.06,-0.0,-0.0,0.2,0.22,-1.02,616.94,407.6,-207.13
34693,-0.12,0.12,0.06,0.2,0.22,-1.0,626.96,414.82,-192.36
34722,0.0,-0.0,0.06,0.19,0.22,-1.0,609.46,410.5,-206.92
34733,-0.06,0.06,-0.06,0.2,0.23,-1.01,622.89,406.16,-205.93
34762,0.0,-0.06,0.06,0.2,0.23,-1.0,606.28,405.73,-188.38
34773,0.0,-0.06,0.06,0.19,0.22,-1.01,616.84,410.45,-204.36
34802,-0.06,0.12,0.12,0.2,0.22,-1.02,618.22,409.34,-196.42
34813,0.0,-0.0,0.12,0.19,0.22,-1.01,609.57,404.99,-207.11
34842,-0.06,0.06,0.12,0.19,0.23,-1.02,606.44,401.46,-192.53
34915,0.0,-0.0,-0.0,0.19,0.22,-1.01,606.62,394.48,-195.45
34925,0.06,-0.12,-0.0,0.19,0.22,-1.0,621.34,410.27,-207.1
34954,-0.12,-0.0,-0.0,0.2,0.23,-1.01,624.16,410.56,-197.8
34965,0.0,-0.0,-0.12,0.2,0.23,-1.01,609.17,415.07,-194.76
34994,0.0,-0.06,-0.06,0.2,0.23,-1.01,625.66,406.54,-193.97
35005,0.0,0.06,-0.12,0.19,0.23,-1.01,616.63,408.29,-188.44
35034,0.0,-0.06,-0.06,0.21,0.22,-1.01,606.84,391.38,-204.88
35045,0.0,-0.0,-0.0,0.19,0.22,-1.01,598.91,408.39,-194.85
35074,0.0,-0.0,0.18,0.2,0.22,-1.02,604.79,407.09,-189.65
35085,-0.06,0.06,0.06,0.2,0.22,-1.01,610.93,402.6,-196.56
35114,-0.06,0.12,-0.06,0.2,0.22,-1.0,600.49,402.9,-193.73
35125,0.06,-0.06,0.06,0.2,0.22,-1.0,613.48,421.87,-194.58
35154,0.0,-0.0,0.12,0.2,0.22,-1.0,607.96,402.66,-196.51
35165,-0.06,-0.06,0.06,0.19,0.21,-1.03,622.55,413.48,-193.68
35194,-0.06,0.06,0.06,0.19,0.22,-1.01,611.12,406.15,-212.42
35205,-0.12,0.12,0.06,0.21,0.23,-1.01,609.3,410.84,-197.57
35234,0.0,-0.0,0.12,0.2,0.22,-1.0,622.72,409.16,-199.16
35245,0.06,-0.0,-0.0,0.2,0.22,-1.0,625.75,406.35,-199.3
35274,-0.06,0.24,0.06,0.19,0.22,-1.0,614.06,398.27,-200.75
35285,-0.12,0.12,0.06,0.2,0.22,-1.01,621.14,405.45,-188.61
35314,-0.06,0.12,-0.18,0.19,0.23,-1.01,600.23,419.22,-198.48
35325,0.06,-0.0,-0.0,0.2,0.22,-1.01,609.5,401.21,-197.92
35354,0.0,-0.0,-0.06,0.19,0.22,-1.0,615.05,419.03,-196.04
35365,0.0,-0.06,-0.18,0.2,0.22,-1.0,618.39,406.35,-203.19
35394,0.0,-0.0,-0.06,0.2,0.22,-1.01,624.22,407.8,-197.9
35405,0.06,0.06,-0.0,0.2,0.23,-1.01,609.37,405.43,-195.1
35434,-0.06,-0.0,0.12,0.19,0.22,-1.01,615.39,402.52,-196.62
35445,0.06,0.06,-0.0,0.2,0.22,-1.01,613.75,401.56,-185.97
35474,0.06,-0.0,0.06,0.2,0.22,-1.01,600.76,397.05,-203.26
35566,0.0,0.06,-0.06,0.19,0.22,-1.01,615.5,402.27,-203.29
35577,0.0,-0.0,0.06,0.2,0.23,-1.01,613.67,405.69,-185.83
35605,-0.06,0.06,0.06,0.2,0.22,-1.01,630.25,402.23,-196.85
35616,-0.06,-0.0,-0.06,0.2,0.23,-1.02,604.67,423.12,-202.41
35645,-0.06,0.18,0.18,0.2,0.24,-1.0,613.61,408.44,-185.73
35656,0.0,-0.0,-0.0,0.2,0.22,-1.01,606.24,415.03,-197.38
35685,0.0,-0.06,-0.0,0.2,0.22,-1.01,630.3,402.13,-199.52
35696,-0.06,0.12,0.06,0.2,0.23,-1.01,614.98,409.98,-180.37
35725,0.0,-0.0,-0.0,0.2,0.22,-1.0,621.34,410.27,-207.1
35736,-0.12,-0.0,-0.06,0.2,0.23,-1.0,613.92,405.15,-200.51
35765,-0.06,0.06,0.06,0.19,0.22,-1.01,600.1,414.25,-184.0
35776,0.06,-0.0,-0.0,0.19,0.21,-1.0,631.65,407.66,-198.01
35805,0.0,0.06,0.06,0.19,0.23,-1.02,613.86,407.91,-200.41
35816,0.06,-0.0,0.12,0.2,0.22,-1.01,625.41,418.93,-193.53
35845,0.0,0.06,-0.06,0.19,0.22,-1.0,609.51,398.55,-195.35
35856,-0.06,0.06,-0.0,0.2,0.21,-1.01,626.02,396.57,-203.65
35885,0.0,-0.06,-0.06,0.2,0.22,-1.01,618.39,406.35,-203.19
35896,-0.06,0.06,-0.0,0.19,0.22,-1.01,614.27,391.24,-205.0
35925,-0.12,0.06,-0.0,0.2,0.22,-1.01,616.83,407.85,-200.45
35936,0.0,-0.06,0.12,0.2,0.23,-1.02,615.12,413.63,-193.56
35965,-0.06,0.06,-0.06,0.19,0.22,-1.01,616.79,407.95,-197.78
35976,0.0,-0.12,-0.06,0.2,0.22,-1.01,631.4,417.39,-195.0
36005,-0.06,0.06,-0.06,0.2,0.22,-1.01,613.48,421.87,-194.58
36016,0.06,-0.0,0.12,0.19,0.23,-1.01,616.93,401.06,-198.03
36045,0.0,-0.0,-0.12,0.2,0.22,-1.01,621.35,398.42,-192.86
36056,-0.06,0.06,0.06,0.19,0.22,-1.01,627.55,397.77,-207.62
36085,-0.06,0.06,-0.0,0.19,0.22,-1.0,618.36,402.46,-196.67
36096,-0.18,0.06,-0.0,0.2,0.22,-1.01,615.2,409.5,-193.71
36125,-0.06,-0.0,-0.0,0.19,0.22,-1.0,598.9,411.04,-197.42
36197,0.12,-0.0,-0.0,0.2,0.23,-1.02,600.74,390.51,-194.17
36208,-0.06,0.06,0.06,0.2,0.23,-1.01,625.54,409.44,-189.86
36236,0.0,-0.06,-0.06,0.2,0.23,-1.0,621.2,407.96,-195.18
36247,0.06,-0.0,-0.0,0.2,0.22,-1.02,614.1,394.24,-198.23
36276,0.0,-0.12,-0.0,0.2,0.23,-1.0,605.9,422.35,-185.13
36287,0.0,0.06,0.12,0.2,0.23,-1.02,597.48,416.19,-207.87
36316,0.0,-0.06,0.06,0.19,0.23,-1.0,615.51,397.01,-196.82
36327,0.0,-0.0,-0.0,0.2,0.22,-1.01,615.44,402.42,-199.29
36356,0.0,-0.0,-0.0,0.19,0.22,-1.0,613.83,405.35,-195.17
36367,0.0,-0.06,-0.06,0.19,0.22,-1.01,606.63,398.41,-200.64
36396,0.06,-0.0,-0.0,0.2,0.22,-1.03,613.87,405.25,-197.84
36407,0.12,-0.0,0.06,0.21,0.22,-1.01,615.5,402.27,-203.29
36436,0.0,-0.06,-0.06,0.19,0.22,-1.01,615.31,406.65,-196.48
36447,0.06,-0.0,-0.0,0.2,0.22,-1.02,621.41,404.86,-204.62
36476,0.0,-0.0,0.06,0.2,0.22,-1.01,622.63,409.35,-193.82
36487,0.0,-0.06,-0.06,0.2,0.22,-1.02,611.2,402.02,-212.57
36516,-0.06,0.06,-0.06,0.19,0.22,-1.01,606.6,405.05,-207.07
36527,0.0,0.12,0.06,0.19,0.22,-1.0,634.52,405.19,-188.81
36556,-0.06,0.12,-0.0,0.19,0.22,-1.01,613.92,405.15,-200.51
36567,-0.06,-0.0,0.06,0.21,0.23,-1.02,591.53,417.63,-209.07
36596,-0.12,0.06,-0.0,0.19,0.22,-1.01,630.07,418.41,-205.6
36607,0.0,-0.0,0.12,0.2,0.21,-1.02,630.14,402.48,-190.18
36636,-0.18,0.06,-0.0,0.19,0.23,-1.0,613.81,398.81,-186.07
36647,-0.06,0.06,-0.0,0.2,0.22,-1.01,624.46,398.07,-200.91
36676,-0.12,0.12,0.06,0.2,0.22,-1.0,627.09,414.53,-200.37
36687,-0.06,0.18,-0.06,0.2,0.23,-1.0,630.32,406.02,-206.04
36716,-0.06,0.06,-0.0,0.2,0.23,-1.01,627.33,391.67,-186.52
36727,0.12,-0.0,0.06,0.19,0.22,-1.0,602.11,401.25,-200.47
10743,-1.22,-2.13,0.24,0.2,0.22,-1.0,625.75,406.35,-199.3
10763,-0.61,-2.5,0.18,0.19,0.22,-1.01,615.39,397.25,-190.15
10783,-0.73,-2.2,0.18,0.19,0.22,-1.01,611.25,392.72,-203.57
10803,-0.91,-2.2,0.24,0.19,0.23,-1.01,616.68,410.8,-195.02
10823,-1.1,-2.13,0.24,0.2,0.23,-1.0,615.46,397.11,-194.15
10843,-1.16,-2.2,0.43,0.2,0.22,-1.01,624.02,417.44,-197.56
10863,-1.16,-2.13,0.3,0.19,0.22,-1.0,618.44,406.25,-205.86
10883,-1.04,-2.26,0.3,0.2,0.23,-1.0,615.62,405.96,-215.16
10903,-0.91,-2.32,0.24,0.2,0.23,-1.01,621.1,414.74,-197.61
10923,-0.91,-2.13,0.3,0.2,0.23,-1.02,622.58,416.04,-198.92
10943,-0.98,-2.07,0.3,0.19,0.22,-1.01,627.09,414.53,-200.37
10963,-0.91,-2.32,0.18,0.19,0.22,-1.0,617.97,416.47,-189.51
10983,-0.98,-2.2,0.24,0.19,0.21,-1.0,614.27,391.24,-205.0
11003,-0.85,-2.32,0.3,0.19,0.23,-1.02,618.18,409.44,-193.76
11023,-0.98,-2.2,0.37,0.19,0.22,-1.02,621.21,414.5,-204.28
11043,-0.73,-2.44,0.3,0.19,0.22,-1.02,611.0,397.19,-194.08
11063,-1.04,-2.2,0.3,0.2,0.23,-1.01,599.34,391.67,-200.77
11083,-0.85,-2.07,0.3,0.2,0.23,-1.01,621.29,407.76,-200.52
11103,-0.98,-1.95,0.3,0.19,0.23,-1.01,624.23,405.15,-195.33
11123,-0.85,-2.2,0.18,0.19,0.22,-1.01,613.58,415.08,-192.16
11143,-0.79,-2.2,0.37,0.2,0.23,-1.02,613.61,408.44,-185.73
11163,-0.91,-2.2,0.3,0.19,0.22,-1.01,616.73,410.7,-197.69
11183,-0.98,-2.2,0.3,0.2,0.22,-1.01,616.74,408.04,-195.12
11203,-0.98,-2.13,0.37,0.19,0.23,-1.0,615.46,406.3,-205.82
11223,-0.85,-2.2,0.18,0.2,0.23,-1.02,611.09,397.0,-199.42
11243,-0.98,-2.13,0.3,0.19,0.22,-1.01,627.4,404.65,-207.38
11263,-0.91,-2.13,0.37,0.19,0.22,-1.01,604.96,409.36,-202.89
11283,-1.04,-2.07,0.18,0.2,0.23,-1.01,614.06,398.27,-200.75
11303,-0.91,-2.07,0.3,0.2,0.21,-1.02,609.64,394.32,-198.16
11323,-1.04,-2.07,0.24,0.19,0.22,-1.01,607.88,406.79,-196.36
11393,-0.98,-2.2,0.37,0.2,0.22,-1.0,622.32,419.23,-186.81
11404,-0.85,-2.26,0.24,0.19,0.23,-1.0,627.09,414.53,-200.37
11433,-0.85,-2.26,0.37,0.2,0.22,-1.01,609.26,414.87,-200.1
11444,-0.85,-2.2,0.18,0.2,0.23,-1.0,610.84,409.39,-198.98
11473,-0.85,-2.26,0.24,0.19,0.22,-1.01,621.23,401.32,-188.76
11484,-0.85,-2.13,0.24,0.2,0.22,-1.01,622.44,418.99,-193.48
11513,-0.85,-2.2,0.37,0.19,0.23,-1.02,600.56,406.69,-202.92
11524,-0.91,-2.26,0.24,0.2,0.22,-1.02,625.84,393.02,-187.78
11553,-0.85,-2.26,0.37,0.2,0.22,-1.02,610.8,406.83,-193.74
11564,-0.85,-2.26,0.3,0.19,0.21,-1.02,616.84,410.45,-204.36
11593,-0.91,-2.2,0.3,0.2,0.22,-1.01,610.85,406.73,-196.41
11604,-1.04,-2.13,0.24,0.2,0.23,-1.02,624.16,410.56,-197.8
11633,-0.91,-2.07,0.3,0.2,0.22,-1.01,606.2,415.13,-194.71
11644,-0.91,-2.13,0.37,0.2,0.22,-1.02,622.69,415.8,-205.59
11673,-0.91,-2.2,0.3,0.2,0.22,-1.01,626.07,396.47,-206.32
11684,-0.85,-2.2,0.3,0.2,0.22,-1.01,618.23,406.69,-193.85
11713,-0.91,-2.2,0.3,0.2,0.22,-1.01,618.31,399.95,-190.09
11724,-1.04,-2.2,0.37,0.19,0.22,-1.01,630.0,409.36,-189.93
11753,-0.79,-2.2,0.24,0.19,0.22,-1.01,613.98,405.01,-204.51
11764,-1.04,-2.13,0.12,0.2,0.22,-1.01,598.9,411.04,-197.42
11793,-0.91,-2.2,0.37,0.19,0.22,-1.02,621.23,410.52,-200.42
11804,-0.85,-2.13,0.3,0.19,0.22,-1.01,609.46,410.5,-206.92
11833,-0.85,-2.2,0.3,0.2,0.22,-1.02,625.59,402.76,-184.77
11844,-0.91,-2.2,0.24,0.2,0.21,-1.02,621.15,414.65,-200.28
11873,-0.91,-2.2,0.43,0.19,0.23,-1.01,618.14,413.47,-196.28
11884,-0.85,-2.2,0.24,0.19,0.23,-1.0,616.83,407.85,-200.45
11913,-0.91,-2.07,0.3,0.2,0.23,-1.01,622.8,412.95,-208.35
11924,-0.79,-2.2,0.18,0.2,0.23,-1.02,613.58,415.08,-192.16
11953,-0.91,-2.2,0.24,0.2,0.22,-1.0,605.02,406.6,-202.99
12030,-0.91,-2.13,0.37,0.21,0.23,-1.02,604.85,409.6,-196.22
12041,-0.85,-2.13,0.24,0.2,0.22,-1.02,609.53,405.09,-204.44
12070,-0.91,-2.2,0.24,0.19,0.22,-1.01,613.98,405.01,-204.51
12081,-0.98,-2.13,0.37,0.2,0.22,-1.01,618.03,416.32,-193.51
12110,-0.91,-1.95,0.24,0.2,0.23,-1.0,605.3,392.84,-203.48
12121,-0.91,-2.26,0.24,0.2,0.22,-1.01,615.82,396.33,-215.5
12150,-0.91,-2.2,0.24,0.2,0.23,-1.01,609.37,405.43,-195.1
12161,-0.79,-2.26,0.24,0.2,0.23,-1.01,613.92,405.15,-200.51
12190,-0.91,-2.13,0.24,0.19,0.22,-1.01,616.93,401.06,-198.03
12201,-0.85,-2.13,0.18,0.19,0.22,-1.0,616.68,410.8,-195.02
12225,-0.91,-2.13,0.3,0.2,0.22,-1.02,607.86,409.44,-198.94
12245,-0.98,-2.13,0.24,0.2,0.22,-1.01,621.09,408.2,-188.51
12265,-0.91,-2.2,0.3,0.2,0.22,-1.0,615.26,406.74,-193.81
12285,-0.98,-2.01,0.24,0.2,0.22,-1.0,615.29,409.3,-199.05
12305,-0.85,-2.13,0.24,0.19,0.22,-1.01,616.5,417.78,-192.11
12325,-0.91,-2.07,0.3,0.19,0.22,-1.01,627.0,414.73,-195.03
12345,-0.98,-2.13,0.24,0.2,0.22,-1.01,625.96,399.32,-203.55
12365,-0.91,-2.13,0.37,0.19,0.22,-1.02,607.67,407.23,-184.36
12385,-0.79,-2.13,0.24,0.21,0.22,-1.0,616.89,405.09,-200.55
12405,-0.85,-2.2,0.3,0.2,0.22,-1.01,621.3,401.17,-192.76
12425,-0.91,-2.2,0.24,0.2,0.22,-1.01,606.38,408.15,-197.63
12445,-0.85,-2.13,0.3,0.19,0.23,-1.02,611.29,392.63,-206.24
12465,-0.91,-2.13,0.37,0.21,0.22,-1.01,616.83,407.85,-200.45
12485,-0.98,-2.13,0.24,0.19,0.22,-1.01,606.24,415.03,-197.38
12505,-0.98,-2.26,0.3,0.19,0.22,-1.01,616.69,414.73,-200.21
12525,-0.98,-2.2,0.37,0.19,0.22,-1.0,608.19,406.11,-215.05
12545,-0.91,-2.13,0.37,0.19,0.22,-1.02,621.09,408.2,-188.51
12565,-0.91,-2.13,0.3,0.2,0.22,-1.01,600.53,397.54,-189.92
12585,-0.91,-2.13,0.24,0.2,0.22,-1.02,618.18,409.44,-193.76
12663,-0.98,-2.13,0.24,0.2,0.23,-1.02,613.77,408.1,-195.07
12673,-1.04,-2.26,0.3,0.19,0.23,-0.99,618.08,416.22,-196.18
12702,-1.1,-2.13,0.24,0.19,0.22,-1.02,621.35,398.42,-192.86
12713,-0.91,-2.26,0.24,0.2,0.23,-1.01,622.85,406.26,-203.26
12742,-0.85,-2.2,0.37,0.19,0.22,-1.0,618.27,409.24,-199.09
12753,-0.98,-2.13,0.24,0.2,0.22,-1.02,610.75,413.52,-198.83
12782,-0.98,-2.13,0.43,0.2,0.22,-1.01,618.39,406.35,-203.19
12793,-0.91,-2.07,0.37,0.2,0.22,-1.0,617.05,404.75,-209.89
12822,-0.91,-2.13,0.24,0.19,0.22,-1.01,613.61,417.64,-197.4
12833,-0.98,-2.2,0.3,0.2,0.22,-1.02,616.83,407.85,-200.45
12862,-0.91,-2.2,0.3,0.19,0.22,-1.01,622.82,393.18,-185.07
12873,-0.85,-2.2,0.18,0.2,0.23,-1.0,630.01,415.9,-199.03
12902,-0.91,-2.2,0.18,0.2,0.22,-1.01,616.9,407.7,-204.46
12913,-0.85,-2.2,0.3,0.19,0.23,-1.02,610.93,402.6,-196.56
12942,-0.91,-2.26,0.24,0.2,0.22,-1.01,615.29,409.3,-199.05
12953,-0.85,-2.26,0.37,0.2,0.22,-1.01,615.06,416.38,-193.47
12982,-0.98,-2.13,0.3,0.2,0.22,-1.01,618.41,402.36,-199.34
12993,-0.91,-2.2,0.3,0.2,0.23,-1.02,609.5,401.21,-197.92
13022,-0.79,-2.26,0.3,0.19,0.22,-1.0,617.09,400.72,-207.37
13033,-0.98,-2.07,0.43,0.19,0.22,-1.01,615.26,406.74,-193.81
13062,-0.91,-2.2,0.3,0.19,0.23,-1.01,611.18,392.87,-199.57
13073,-0.98,-2.13,0.37,0.19,0.22,-1.01,622.68,409.26,-196.49
13102,-0.79,-2.2,0.3,0.2,0.21,-1.01,609.36,408.09,-197.67
13113,-0.85,-2.26,0.24,0.2,0.22,-1.01,621.5,400.73,-204.77
13142,-0.91,-2.2,0.24,0.19,0.22,-1.02,607.77,409.64,-193.6
13153,-0.98,-2.2,0.18,0.19,0.21,-1.0,622.72,409.16,-199.16
13182,-0.91,-2.26,0.12,0.2,0.23,-1.02,621.29,398.57,-188.85
13193,-0.98,-2.2,0.43,0.2,0.23,-1.01,611.15,399.51,-205.99
13222,-1.04,-2.2,0.24,0.2,0.23,-1.02,609.27,408.28,-192.34
13295,-0.85,-2.13,0.18,0.2,0.22,-1.01,617.14,388.77,-195.8
13305,-0.79,-2.2,0.3,0.19,0.22,-1.01,610.66,413.71,-193.5
13334,-0.91,-2.13,0.18,0.2,0.23,-1.02,609.36,408.09,-197.67
13345,-0.91,-2.26,0.43,0.2,0.22,-1.01,606.55,405.15,-204.4
13374,-0.98,-2.26,0.18,0.2,0.22,-1.02,621.4,398.32,-195.52
13385,-0.85,-2.26,0.24,0.2,0.22,-1.01,609.41,405.34,-197.77
13414,-0.98,-2.01,0.24,0.19,0.22,-1.01,616.69,405.53,-188.54
13425,-0.98,-2.13,0.43,0.2,0.22,-1.01,610.89,406.63,-199.08
13454,-0.85,-2.2,0.3,0.2,0.22,-1.01,610.98,402.5,-199.22
13465,-0.98,-2.2,0.37,0.2,0.22,-1.01,615.09,418.94,-198.71
13494,-0.98,-2.13,0.3,0.2,0.21,-1.0,623.97,417.54,-194.89
13505,-0.91,-2.13,0.3,0.19,0.23,-1.01,615.35,406.55,-199.15
13534,-0.91,-2.2,0.3,0.2,0.22,-1.02,618.21,402.8,-187.33
13545,-0.98,-2.2,0.12,0.2,0.22,-1.01,616.93,401.06,-198.03
13574,-0.91,-2.2,0.18,0.19,0.22,-1.0,617.12,394.08,-200.94
13585,-0.85,-2.2,0.24,0.2,0.22,-1.01,613.93,407.76,-204.41
13614,-0.91,-2.13,0.24,0.2,0.22,-0.99,622.55,402.96,-180.72
13625,-1.04,-2.2,0.18,0.19,0.22,-1.01,616.58,408.38,-185.78
13654,-0.91,-2.13,0.3,0.19,0.22,-1.0,613.91,401.22,-195.31
13665,-0.91,-2.2,0.3,0.19,0.22,-1.01,618.52,402.12,-206.01
13694,-0.91,-2.13,0.24,0.2,0.23,-1.0,613.57,417.74,-194.73
13705,-0.79,-2.2,0.3,0.19,0.22,-0.99,627.03,408.09,-188.6
13734,-0.85,-2.13,0.24,0.19,0.23,-1.01,613.47,415.32,-185.49
13745,-0.79,-2.2,0.24,0.2,0.22,-1.01,616.75,405.39,-192.54
13774,-0.98,-2.32,0.24,0.19,0.22,-1.0,625.87,406.11,-205.97
13785,-0.91,-2.26,0.24,0.2,0.22,-1.01,613.78,405.44,-192.5
13814,-0.98,-2.13,0.3,0.19,0.22,-0.99,607.82,400.34,-184.6
13825,-0.91,-2.2,0.37,0.2,0.23,-1.01,610.75,409.58,-193.64
13854,-0.91,-2.13,0.18,0.2,0.22,-1.0,600.64,402.56,-203.07
13942,-0.85,-2.32,0.24,0.2,0.22,-1.01,606.38,398.95,-185.96
13953,-0.91,-2.13,0.24,0.19,0.22,-1.01,611.09,397.0,-199.42
13982,-1.04,-2.2,0.24,0.19,0.22,-1.0,624.52,400.58,-207.48
13993,-0.98,-2.2,0.37,0.19,0.22,-1.01,618.22,409.34,-196.42
14022,-0.85,-2.13,0.37,0.19,0.21,-1.01,605.94,427.51,-194.28
14033,-0.73,-2.2,0.24,0.2,0.23,-1.01,601.88,408.33,-194.89
14062,-1.1,-2.2,0.37,0.2,0.23,-1.01,616.7,408.14,-192.45
14073,-0.85,-2.26,0.18,0.19,0.23,-1.0,605.02,406.6,-202.99
14102,-0.98,-2.26,0.37,0.19,0.21,-1.01,621.39,400.98,-198.1
14113,-1.04,-2.13,0.37,0.19,0.22,-1.0,601.78,415.11,-197.32
14142,-0.85,-2.13,0.3,0.19,0.22,-1.01,609.5,401.21,-197.92
14153,-0.91,-2.2,0.24,0.19,0.23,-1.0,609.34,410.74,-200.24
14182,-0.98,-2.13,0.18,0.2,0.23,-1.02,610.89,406.63,-199.08
14193,-0.91,-2.13,0.3,0.19,0.23,-1.01,613.72,408.2,-192.4
14222,-0.91,-2.2,0.24,0.2,0.22,-1.01,606.4,405.49,-195.06
14233,-0.91,-2.13,0.24,0.2,0.22,-1.02,625.62,415.84,-202.96
14262,-1.04,-2.26,0.3,0.2,0.23,-1.02,616.9,407.7,-204.46
14273,-0.85,-2.13,0.37,0.19,0.23,-1.01,615.14,409.64,-189.71
14302,-0.79,-2.01,0.3,0.19,0.22,-1.02,622.79,409.01,-203.16
14313,-0.91,-2.2,0.37,0.2,0.22,-1.0,625.52,413.43,-193.72
14342,-0.91,-2.2,0.37,0.2,0.23,-1.01,615.28,413.29,-202.9
14353,-0.98,-2.2,0.24,0.2,0.23,-1.01,604.67,423.12,-202.41
14382,-1.04,-2.2,0.3,0.19,0.22,-1.01,609.0,427.26,-199.66
14393,-0.91,-2.26,0.18,0.2,0.22,-1.01,613.87,405.25,-197.84
14422,-0.85,-2.2,0.3,0.2,0.22,-1.01,618.32,406.49,-199.19
14433,-0.91,-2.2,0.49,0.2,0.23,-1.0,610.98,402.5,-199.22
14462,-0.91,-2.07,0.18,0.2,0.23,-1.01,621.34,401.07,-195.43
14473,-0.98,-2.07,0.24,0.2,0.23,-1.03,615.21,413.43,-198.9
14502,-0.98,-2.26,0.3,0.2,0.23,-1.01,624.16,410.56,-197.8
14575,-0.85,-2.26,0.12,0.2,0.22,-1.01,613.91,401.22,-195.31
14585,-0.98,-2.26,0.24,0.19,0.22,-1.02,607.99,415.74,-214.7
14614,-0.85,-2.13,0.3,0.19,0.22,-1.01,613.6,411.1,-188.3
14625,-0.91,-2.2,0.37,0.2,0.22,-1.02,625.71,406.45,-196.63
14654,-0.85,-2.13,0.43,0.2,0.22,-1.01,618.28,406.59,-196.52
14665,-0.85,-2.13,0.37,0.2,0.22,-1.01,606.38,398.95,-185.96
14694,-0.85,-2.07,0.24,0.2,0.22,-1.02,616.8,405.29,-195.21
14705,-0.79,-2.2,0.24,0.2,0.22,-0.99,615.14,409.64,-189.71
14734,-0.91,-2.2,0.24,0.19,0.22,-1.01,605.03,413.14,-212.09
14745,-0.98,-2.2,0.37,0.21,0.23,-1.0,617.04,400.82,-204.7
14774,-0.91,-2.2,0.3,0.19,0.23,-1.01,622.94,396.87,-196.93
14785,-1.04,-2.13,0.18,0.2,0.22,-1.03,616.53,411.14,-185.68
14814,-0.91,-2.13,0.3,0.19,0.22,-1.01,618.22,409.34,-196.42
14825,-0.91,-2.2,0.43,0.2,0.22,-1.02,606.34,408.24,-194.96
14854,-0.98,-2.26,0.24,0.2,0.22,-1.02,613.86,398.71,-188.74
14865,-1.1,-2.26,0.43,0.2,0.22,-1.01,624.52,400.58,-207.48
14894,-0.98,-2.13,0.24,0.2,0.23,-1.01,622.78,406.41,-199.26
14905,-1.04,-2.26,0.18,0.2,0.22,-1.01,613.77,417.3,-206.74
14934,-0.91,-2.2,0.3,0.2,0.23,-1.01,613.57,408.54,-183.06
14945,-0.98,-2.26,0.37,0.2,0.22,-1.02,609.54,401.11,-200.58
14974,-0.85,-2.2,0.24,0.2,0.22,-1.0,613.51,415.23,-188.16
14985,-1.04,-2.2,0.49,0.2,0.23,-1.02,609.21,411.04,-192.24
15014,-0.98,-2.26,0.3,0.2,0.22,-1.01,624.07,414.69,-197.65
15025,-1.04,-2.07,0.3,0.2,0.22,-1.01,607.83,406.89,-193.7
15054,-1.04,-2.13,0.3,0.2,0.22,-1.01,618.32,406.49,-199.19
15065,-0.91,-2.07,0.3,0.2,0.22,-1.01,616.64,414.83,-197.54
15094,-0.85,-2.13,0.18,0.19,0.22,-1.01,610.75,409.58,-193.64
15105,-0.98,-2.26,0.3,0.19,0.23,-1.02,606.29,408.34,-192.29
15134,-0.91,-2.2,0.3,0.19,0.23,-1.0,616.9,407.7,-204.46
15207,-0.91,-2.13,0.3,0.2,0.22,-1.02,610.99,399.85,-196.65
15218,-0.98,-2.07,0.24,0.2,0.22,-1.0,622.58,406.84,-187.25
15246,-0.85,-2.2,0.37,0.2,0.22,-1.0,615.2,409.5,-193.71
15257,-0.91,-2.2,0.37,0.2,0.23,-1.02,609.81,391.33,-204.93
15286,-0.98,-2.13,0.3,0.19,0.22,-1.01,626.75,421.85,-188.11
15297,-0.98,-2.07,0.37,0.19,0.23,-1.0,618.39,406.35,-203.19
15326,-0.91,-2.13,0.24,0.2,0.22,-1.02,618.47,399.61,-199.43
15337,-0.91,-2.2,0.37,0.2,0.22,-1.03,615.55,396.91,-199.49
15366,-0.85,-2.07,0.3,0.2,0.22,-1.0,609.32,405.53,-192.43
15377,-0.85,-2.32,0.24,0.19,0.23,-1.0,618.36,402.46,-196.67
15406,-0.91,-2.13,0.24,0.19,0.22,-1.01,617.91,419.22,-189.41
15417,-0.98,-2.13,0.3,0.2,0.22,-1.0,610.99,409.05,-208.32
15446,-0.91,-2.26,0.24,0.2,0.22,-1.02,601.73,417.87,-197.22
15457,-0.91,-2.2,0.37,0.2,0.22,-1.01,607.92,406.69,-199.03
15486,-0.12,0.12,-0.06,0.19,0.21,-1.02,615.22,416.04,-202.81
15497,-0.18,0.06,0.12,0.2,0.22,-1.0,621.3,405.11,-197.95
15526,-0.06,0.12,-0.0,0.19,0.23,-1.02,613.57,421.67,-199.92
15537,-0.18,0.06,-0.0,0.2,0.23,-1.01,618.18,413.37,-198.95
15566,0.0,-0.06,0.06,0.2,0.21,-1.01,624.36,400.92,-198.14
15577,-0.12,0.12,0.12,0.2,0.22,-1.01,622.98,402.03,-206.08
15606,-0.18,0.24,0.06,0.19,0.23,-1.01,622.89,396.97,-194.26
15617,-0.18,0.06,0.12,0.19,0.22,-1.01,601.97,408.13,-200.23
15646,-0.12,0.06,0.06,0.2,0.23,-1.01,618.09,413.57,-193.61
15657,-0.18,0.06,0.12,0.2,0.22,-1.01,630.21,402.33,-194.18
15686,-0.12,0.12,0.12,0.2,0.22,-1.01,613.98,405.01,-204.51
15697,-0.06,0.12,-0.06,0.2,0.22,-1.01,613.76,410.76,-197.64
15726,-0.12,0.06,0.12,0.19,0.23,-1.01,610.89,402.7,-193.89
15737,-0.12,-0.0,0.12,0.19,0.23,-0.99,616.79,407.95,-197.78
15766,0.06,-0.12,-0.0,0.2,0.23,-1.01,606.37,401.6,-188.53
15843,0.0,-0.06,0.06,0.2,0.22,-1.01,613.87,401.31,-192.65
15854,0.0,-0.0,-0.0,0.19,0.22,-1.02,630.35,399.38,-199.61
15877,-0.06,0.06,0.12,0.2,0.22,-1.0,597.79,397.11,-203.22
15897,-0.12,-0.0,-0.0,0.19,0.23,-1.02,618.12,406.93,-187.18
15917,-0.12,-0.0,-0.0,0.2,0.22,-1.01,616.9,407.7,-204.46
15937,-0.12,-0.0,-0.0,0.2,0.23,-1.01,604.99,402.72,-196.47
15957,-0.12,0.06,0.18,0.2,0.22,-1.01,616.54,417.68,-194.77
15977,-0.12,0.18,-0.0,0.2,0.23,-1.02,621.03,410.95,-188.41
15997,-0.18,0.12,0.12,0.2,0.22,-1.0,627.59,393.74,-205.1
16017,-0.12,-0.0,-0.06,0.2,0.22,-1.01,613.87,405.25,-197.84
16037,-0.18,-0.0,0.06,0.2,0.22,-1.0,616.53,411.14,-185.68
16057,0.0,-0.0,0.06,0.21,0.23,-1.01,630.32,396.82,-194.37
16077,-0.12,0.06,0.06,0.2,0.22,-1.0,610.99,399.85,-196.65
16097,-0.18,0.06,0.12,0.19,0.22,-1.02,627.36,404.75,-204.71
16117,0.0,-0.0,-0.0,0.2,0.22,-1.0,621.64,388.59,-198.53
16137,0.0,-0.06,0.12,0.2,0.23,-1.01,626.96,414.82,-192.36
16157,-0.12,-0.0,-0.0,0.2,0.22,-1.0,627.34,398.21,-195.61
16177,-0.06,-0.0,0.12,0.19,0.21,-1.01,618.64,396.61,-206.2
16197,-0.12,0.06,0.06,0.2,0.23,-1.02,592.82,416.71,-195.8
16217,-0.06,0.06,-0.0,0.2,0.22,-1.02,621.15,414.65,-200.28
16237,-0.06,0.18,-0.0,0.2,0.22,-1.01,630.0,409.36,-189.93
16257,-0.12,0.06,0.12,0.19,0.22,-1.0,625.91,396.81,-196.98
16277,0.0,-0.06,0.06,0.2,0.23,-1.01,616.49,424.37,-199.87
16297,-0.06,0.12,-0.0,0.2,0.22,-1.01,607.83,406.89,-193.7
16317,-0.12,0.06,0.06,0.2,0.23,-1.01,618.08,407.03,-184.51
16337,-0.12,0.18,0.06,0.2,0.22,-1.01,613.77,408.1,-195.07
16357,-0.12,0.06,0.18,0.2,0.22,-1.0,615.2,409.5,-193.71
16377,-0.18,0.12,-0.0,0.2,0.23,-1.0,615.29,409.3,-199.05
16397,-0.24,0.18,-0.0,0.2,0.22,-1.01,606.49,405.29,-200.39
16474,-0.12,0.06,0.24,0.2,0.22,-1.0,621.3,405.11,-197.95
16485,-0.06,0.06,0.06,0.2,0.22,-1.0,600.39,409.68,-196.15
16514,-0.06,0.06,-0.06,0.19,0.22,-1.02,610.64,419.02,-198.64
16525,-0.18,0.12,-0.0,0.19,0.22,-1.01,613.96,401.12,-197.98
16554,-0.12,-0.0,0.12,0.2,0.22,-1.02,615.35,406.55,-199.15
16565,-0.12,0.18,-0.0,0.2,0.22,-1.01,621.1,405.55,-185.94
16594,-0.18,0.06,-0.0,0.19,0.22,-1.0,613.51,415.23,-188.16
16605,-0.18,0.12,0.06,0.19,0.22,-1.02,616.88,401.16,-195.36
16634,-0.3,0.18,0.06,0.21,0.23,-1.02,607.93,409.3,-202.94
16645,0.06,-0.12,-0.0,0.19,0.23,-1.01,613.72,408.2,-192.4
16674,-0.12,0.18,0.06,0.2,0.22,-1.02,593.1,402.94,-196.29
16685,-0.12,-0.0,-0.06,0.2,0.23,-1.02,614.01,398.37,-198.08
16714,-0.06,0.06,0.06,0.2,0.23,-1.02,614.21,393.99,-204.9
16725,-0.06,0.06,0.06,0.19,0.22,-1.01,613.87,405.25,-197.84
16754,-0.06,0.12,0.06,0.19,0.23,-1.01,615.49,399.67,-199.39
16765,-0.18,0.12,-0.0,0.19,0.23,-1.0,631.8,407.32,-207.35
16794,-0.12,0.18,0.06,0.2,0.23,-1.01,627.14,407.84,-195.27
16805,-0.12,0.12,-0.06,0.2,0.23,-1.02,614.03,404.91,-207.18
16834,-0.06,0.06,-0.06,0.2,0.22,-1.02,596.04,405.59,-197.57
16845,-0.06,0.06,0.18,0.21,0.21,-1.01,630.14,402.48,-190.18
16874,-0.12,0.06,0.18,0.19,0.21,-1.02,616.96,404.95,-204.55
16885,-0.18,0.06,-0.0,0.2,0.22,-1.0,621.43,391.68,-189.1
16914,-0.18,0.06,-0.0,0.2,0.22,-1.01,617.82,423.35,-189.27
16925,-0.12,-0.0,-0.06,0.2,0.22,-1.01,625.75,402.41,-194.11
16954,-0.12,-0.0,-0.12,0.19,0.22,-1.01,609.54,401.11,-200.58
16965,-0.12,0.18,0.06,0.2,0.24,-1.0,606.55,405.15,-204.4
16994,-0.06,0.06,-0.0,0.2,0.22,-1.01,613.63,414.98,-194.83
17005,-0.24,0.06,-0.0,0.2,0.22,-1.01,610.8,406.83,-193.74
17034,0.0,-0.06,0.06,0.19,0.22,-1.01,621.35,405.01,-200.62
17106,0.06,-0.0,0.12,0.2,0.23,-1.01,606.62,394.48,-195.45
17117,-0.18,0.12,-0.0,0.19,0.22,-1.02,605.15,397.11,-199.33
17146,-0.12,0.06,0.18,0.2,0.22,-1.0,622.55,413.48,-193.68
17157,0.0,-0.0,0.06,0.2,0.22,-1.02,611.05,406.29,-208.42
17186,-0.12,0.12,0.06,0.2,0.22,-1.01,606.24,415.03,-197.38
17197,-0.18,0.18,-0.0,0.2,0.22,-1.0,616.64,414.83,-197.54
17226,0.0,-0.0,0.12,0.2,0.22,-1.02,607.98,409.2,-205.61
17237,-0.12,0.06,-0.0,0.2,0.23,-1.0,616.43,417.92,-188.1
17266,-0.12,0.06,0.06,0.19,0.22,-1.01,605.22,406.16,-215.0
17277,-0.06,0.12,-0.0,0.2,0.22,-1.02,618.32,402.56,-194.0
17306,-0.06,0.12,-0.06,0.2,0.22,-1.01,618.48,402.22,-203.34
17317,-0.12,0.18,0.06,0.2,0.22,-1.01,609.11,427.02,-206.33
17346,-0.06,-0.0,0.12,0.2,0.22,-1.0,622.78,397.21,-187.59
17357,-0.12,0.06,0.12,0.2,0.22,-1.02,622.58,416.04,-198.92
17386,-0.06,0.06,-0.06,0.2,0.22,-1.0,621.3,414.3,-209.62
17397,-0.12,0.18,-0.0,0.19,0.22,-1.0,606.24,415.03,-197.38
17426,-0.06,0.24,-0.06,0.2,0.22,-1.01,609.1,406.02,-179.09
17437,-0.12,-0.0,0.06,0.2,0.22,-1.02,600.89,392.82,-206.08
17466,-0.06,0.18,-0.0,0.2,0.22,-1.01,622.59,413.39,-196.35
17477,-0.12,0.06,-0.06,0.2,0.21,-1.0,607.62,409.98,-184.26
17506,-0.18,-0.0,0.06,0.21,0.22,-1.02,615.5,402.27,-203.29
17517,-0.12,-0.0,0.06,0.2,0.21,-1.0,611.13,412.69,-221.52
17546,-0.24,0.12,-0.0,0.2,0.23,-0.99,627.1,407.94,-192.6
17557,0.0,-0.06,-0.0,0.2,0.23,-1.02,621.3,405.11,-197.95
17586,-0.18,0.06,-0.12,0.2,0.22,-1.02,607.92,397.49,-187.37
17597,-0.24,0.06,-0.06,0.19,0.22,-1.02,611.09,402.26,-205.9
17626,-0.24,-0.06,0.18,0.2,0.22,-1.01,609.36,408.09,-197.67
17637,-0.12,-0.0,-0.0,0.2,0.22,-1.01,616.69,405.53,-188.54
17666,-0.06,0.18,-0.0,0.19,0.22,-1.01,606.35,414.78,-204.06
17738,-0.24,0.06,0.12,0.2,0.22,-1.01,610.95,399.95,-193.98
17749,-0.18,0.12,-0.0,0.19,0.22,-1.02,616.77,401.4,-188.69
17778,-0.24,0.06,0.12,0.2,0.22,-1.02,607.62,419.18,-195.93
17789,-0.24,0.12,0.18,0.19,0.22,-1.0,609.5,401.21,-197.92
17818,-0.3,0.12,0.06,0.2,0.22,-1.01,615.29,409.3,-199.05
17829,-0.12,0.06,0.06,0.2,0.22,-1.01,613.86,407.91,-200.41
17858,-0.12,0.12,0.06,0.2,0.22,-1.01,616.89,405.09,-200.55
17869,-0.18,0.18,-0.0,0.19,0.23,-1.02,622.54,416.14,-196.25
17898,-0.18,0.12,-0.0,0.19,0.22,-1.0,610.79,409.48,-196.31
17909,-0.12,0.06,0.06,0.2,0.23,-1.02,607.63,416.52,-193.35
17938,-0.06,0.06,0.06,0.2,0.22,-0.99,615.29,409.3,-199.05
17949,-0.18,0.06,-0.0,0.2,0.22,-1.02,621.06,414.84,-194.94
17978,-0.12,-0.0,-0.0,0.19,0.23,-1.0,606.34,408.24,-194.96
17989,-0.06,0.06,-0.06,0.19,0.22,-1.01,609.2,408.43,-188.33
18018,-0.06,0.06,0.06,0.19,0.23,-1.01,610.89,406.63,-199.08
18029,0.0,-0.0,0.06,0.2,0.22,-1.02,622.74,406.5,-196.59
18058,-0.12,0.12,0.12,0.2,0.22,-1.01,613.86,407.91,-200.41
18069,-0.06,-0.0,-0.0,0.2,0.22,-0.99,615.31,406.65,-196.48
18098,-0.18,0.06,-0.0,0.2,0.22,-1.01,614.79,416.96,-177.45
18109,-0.18,0.18,0.06,0.19,0.22,-1.01,606.78,394.14,-204.79
18138,-0.12,0.12,-0.0,0.2,0.23,-1.02,607.96,402.66,-196.51
18149,-0.18,0.12,-0.0,0.19,0.22,-1.0,613.67,414.89,-197.5
18178,-0.12,0.18,-0.0,0.2,0.22,-1.02,622.68,409.26,-196.49
18189,-0.3,0.06,-0.0,0.2,0.22,-1.01,627.44,400.62,-204.86
18218,-0.18,0.12,-0.06,0.19,0.23,-1.01,610.79,400.29,-184.64
18229,-0.06,-0.0,-0.06,0.2,0.23,-1.02,615.19,406.89,-189.81
18258,-0.18,0.06,-0.0,0.2,0.22,-1.01,604.86,406.94,-193.65
18269,-0.06,-0.0,-0.06,0.19,0.22,-1.01,616.97,400.97,-200.7
18298,-0.24,0.06,0.12,0.2,0.22,-1.01,623.87,415.12,-185.64
18375,0.0,-0.0,0.06,0.2,0.22,-1.01,613.96,401.12,-197.98
18386,-0.12,0.12,0.12,0.2,0.23,-1.01,618.48,402.22,-203.34
18409,-0.18,0.06,-0.0,0.19,0.23,-1.0,622.82,397.11,-190.26
18429,-0.24,0.12,0.12,0.2,0.23,-1.01,601.97,408.13,-200.23
18449,-0.18,0.06,-0.0,0.2,0.22,-1.0,618.32,397.29,-187.52
18469,-0.18,0.12,0.06,0.2,0.22,-1.01,615.39,402.52,-196.62
18489,0.0,-0.0,0.12,0.2,0.22,-1.02,604.9,406.85,-196.32
18509,0.0,-0.0,-0.0,0.2,0.21,-1.0,616.77,401.4,-188.69
18529,-0.18,0.06,0.06,0.19,0.22,-1.01,615.25,400.2,-184.71
18549,-0.12,-0.0,0.06,0.2,0.22,-1.01,606.08,415.37,-188.04
18569,-0.12,-0.0,-0.0,0.2,0.22,-1.01,610.85,406.73,-196.41
18589,-0.18,0.06,0.12,0.2,0.21,-1.01,617.91,419.22,-189.41
18609,-0.12,0.12,0.18,0.2,0.23,-1.01,616.73,401.5,-186.02
18629,-0.12,0.06,0.06,0.19,0.22,-1.01,622.98,402.03,-206.08
18649,-0.06,0.12,0.06,0.19,0.22,-1.01,620.94,415.08,-188.27
18669,-0.06,0.12,0.06,0.2,0.22,-1.02,622.65,415.9,-202.92
18689,0.06,-0.0,-0.0,0.2,0.22,-1.0,631.61,405.1,-192.77
18709,-0.24,0.06,0.06,0.19,0.22,-1.02,610.84,409.39,-198.98
18729,-0.12,0.06,0.06,0.19,0.22,-1.01,613.67,410.95,-192.3
18749,-0.18,0.12,0.06,0.19,0.22,-1.01,616.97,400.97,-200.7
18769,-0.06,0.12,0.06,0.2,0.22,-1.01,621.26,405.2,-195.28
18789,0.0,-0.0,-0.0,0.2,0.22,-1.01,625.35,416.42,-186.95
18809,-0.06,0.12,-0.0,0.2,0.22,-1.02,596.62,384.6,-207.64
18829,-0.12,0.18,-0.0,0.19,0.22,-1.01,618.62,390.07,-197.11
18849,-0.18,0.12,-0.0,0.21,0.22,-1.02,616.55,415.02,-192.2
18869,-0.24,0.18,0.06,0.19,0.22,-1.01,613.38,424.72,-191.82
18889,-0.06,-0.0,0.06,0.2,0.23,-1.01,617.18,393.94,-204.94
18909,-0.18,0.06,-0.06,0.19,0.23,-1.01,621.33,394.53,-186.33
18929,-0.24,0.06,0.06,0.19,0.23,-1.01,625.65,400.0,-184.87
19007,0.0,-0.12,-0.06,0.19,0.22,-1.02,618.32,397.29,-187.52
19017,-0.06,-0.0,-0.06,0.19,0.22,-1.01,607.72,407.13,-187.02
19046,-0.12,-0.0,-0.0,0.2,0.21,-1.02,621.3,405.11,-197.95
19057,-0.18,0.12,0.06,0.2,0.22,-1.02,631.85,407.22,-210.02
19086,-0.12,0.24,0.24,0.2,0.22,-1.01,616.46,421.81,-194.63
19097,-0.12,0.12,-0.06,0.2,0.22,-1.01,615.29,400.1,-187.38
19126,-0.12,0.06,-0.0,0.19,0.23,-1.0,610.55,419.22,-193.3
19137,-0.12,-0.06,-0.0,0.2,0.22,-1.01,618.39,406.35,-203.19
19166,-0.06,0.06,-0.18,0.2,0.22,-1.01,613.46,417.98,-188.06
19177,-0.06,0.12,-0.0,0.19,0.22,-0.99,618.26,400.05,-187.43
19206,0.0,-0.0,-0.0,0.2,0.23,-1.02,604.67,423.12,-202.41
19217,-0.24,0.18,-0.0,0.2,0.21,-1.01,631.64,410.32,-200.58
19246,-0.06,0.18,0.06,0.2,0.22,-1.01,618.59,396.71,-203.53
19257,-0.06,0.12,-0.06,0.19,0.22,-1.01,609.55,394.52,-192.82
19286,-0.12,0.12,-0.0,0.2,0.23,-1.01,613.81,408.0,-197.74
19297,-0.06,-0.0,-0.0,0.2,0.22,-1.01,601.82,411.08,-194.79
19326,-0.18,0.18,0.18,0.2,0.22,-1.01,627.18,410.4,-200.51
19337,-0.12,0.06,0.18,0.2,0.21,-1.01,624.22,407.8,-197.9
19366,-0.12,0.12,0.12,0.2,0.22,-1.0,630.1,402.57,-187.51
19377,-0.18,0.12,0.06,0.2,0.22,-1.0,616.97,400.97,-200.7
19406,-0.06,0.06,-0.0,0.2,0.22,-1.01,618.58,390.17,-194.44
19417,-0.18,0.12,0.12,0.19,0.22,-1.01,622.62,406.75,-189.92
19446,-0.24,0.12,0.06,0.2,0.23,-1.01,616.84,410.45,-204.36
19457,-0.06,0.12,-0.0,0.19,0.22,-1.02,611.14,402.16,-208.56
19486,0.0,-0.0,0.06,0.2,0.22,-1.01,604.6,414.07,-186.74
19497,-0.24,0.12,-0.0,0.2,0.23,-1.02,607.92,406.69,-199.03
19526,-0.18,0.12,0.18,0.19,0.22,-1.02,622.78,402.47,-194.07
19537,-0.12,0.12,0.06,0.2,0.22,-1.01,609.33,414.73,-204.1
19566,-0.06,-0.0,-0.0,0.2,0.22,-1.0,622.42,416.38,-189.58
19658,-0.06,0.06,-0.06,0.19,0.23,-1.01,625.41,413.67,-187.05
19669,-0.18,-0.06,0.12,0.2,0.22,-1.01,621.65,397.79,-210.2
19697,-0.06,0.18,0.06,0.19,0.23,-1.01,610.96,406.49,-203.08
19708,-0.18,-0.0,0.06,0.19,0.23,-1.02,610.82,413.37,-202.84
19737,0.0,-0.0,-0.18,0.2,0.22,-1.0,609.47,407.84,-204.34
19748,-0.12,0.12,0.06,0.2,0.22,-1.01,622.64,413.29,-199.01
19777,-0.18,0.12,0.12,0.2,0.22,-1.01,601.67,411.42,-185.45
19788,-0.06,0.12,-0.0,0.2,0.22,-1.02,616.58,408.38,-185.78
19817,-0.06,-0.0,-0.0,0.2,0.23,-1.02,621.14,410.71,-195.09
19828,-0.12,0.12,-0.0,0.2,0.22,-1.02,604.86,416.14,-205.32
19857,-0.06,0.12,-0.0,0.19,0.22,-1.01,606.55,405.15,-204.4
19868,-0.12,0.06,0.06,0.19,0.23,-1.0,622.78,406.41,-199.26
19897,-0.18,0.06,0.18,0.2,0.23,-1.0,616.73,401.5,-186.02
19908,-0.12,0.12,0.06,0.19,0.23,-1.02,618.48,402.22,-203.34
19937,-0.06,-0.0,0.12,0.2,0.22,-1.01,618.22,409.34,-196.42
19948,-0.24,0.12,-0.0,0.2,0.22,-1.0,599.0,408.19,-200.18
19977,-0.18,0.12,-0.0,0.2,0.22,-1.0,597.47,406.99,-196.21
19988,-0.12,0.06,-0.0,0.2,0.23,-1.01,609.26,414.87,-200.1
20017,-0.12,0.06,0.12,0.2,0.22,-1.0,590.09,407.03,-198.76
20028,-0.12,0.06,0.06,0.2,0.22,-1.02,634.76,400.72,-198.3
20057,-0.12,0.18,0.12,0.2,0.22,-1.0,621.2,407.96,-195.18
20068,-0.06,0.12,0.12,0.2,0.23,-1.02,599.21,410.36,-216.1
20097,-0.24,0.18,-0.06,0.2,0.23,-1.01,621.34,401.07,-195.43
20108,-0.06,0.06,-0.0,0.2,0.21,-1.0,611.09,402.26,-205.9
20137,-0.18,0.06,-0.06,0.2,0.22,-1.01,622.82,402.37,-196.74
20148,-0.06,0.12,0.06,0.2,0.22,-1.0,618.33,409.1,-203.1
20177,-0.06,0.06,0.18,0.2,0.22,-1.01,618.57,402.02,-208.68
20188,-0.12,0.06,0.06,0.19,0.22,-1.01,609.31,408.19,-195.0
20217,-0.12,0.06,-0.0,0.2,0.21,-1.01,621.1,414.74,-197.61
20289,-0.24,0.12,0.12,0.19,0.22,-1.0,611.3,389.97,-203.67
20300,-0.06,0.06,0.12,0.19,0.22,-1.01,622.65,415.9,-202.92
20329,-0.12,0.12,-0.0,0.2,0.21,-1.01,627.53,400.42,-210.2
20340,-0.06,-0.0,0.06,0.2,0.22,-1.02,613.77,408.1,-195.07
20369,0.06,-0.0,0.06,0.2,0.22,-1.01,608.02,399.91,-196.61
20380,0.0,-0.0,0.06,0.19,0.22,-1.01,625.45,413.57,-189.72
20409,-0.18,0.06,-0.0,0.2,0.23,-1.0,615.22,416.04,-202.81
20420,-0.12,0.06,0.06,0.2,0.23,-1.0,618.48,402.22,-203.34
20449,-0.18,0.06,0.06,0.2,0.23,-1.01,627.29,410.16,-207.19
20460,-0.12,0.12,-0.0,0.2,0.22,-1.0,621.41,404.86,-204.62
20489,0.0,-0.0,0.06,0.2,0.22,-1.01,618.06,409.68,-187.08
20500,-0.18,0.12,0.06,0.2,0.22,-1.01,616.84,405.19,-197.88
20529,-0.18,0.12,-0.0,0.2,0.22,-1.01,608.06,399.81,-199.28
20540,-0.06,-0.0,0.18,0.2,0.22,-1.01,613.97,398.46,-195.41
20569,-0.12,0.06,0.06,0.21,0.22,-1.01,609.15,408.53,-185.66
20580,-0.12,0.06,0.18,0.2,0.24,-1.01,621.2,407.96,-195.18
20609,-0.18,0.06,0.06,0.19,0.23,-1.01,606.34,417.44,-206.63
20620,-0.12,-0.0,0.06,0.19,0.23,-1.0,618.12,406.93,-187.18
20649,-0.18,0.06,-0.0,0.2,0.21,-1.01,618.38,399.8,-194.1
20660,-0.06,0.12,-0.0,0.19,0.21,-1.01,615.7,392.64,-203.64
20689,-0.06,0.12,0.06,0.2,0.22,-1.02,617.0,410.11,-213.7
20700,-0.24,0.06,0.06,0.2,0.22,-1.01,618.36,402.46,-196.67
20729,-0.24,0.12,0.06,0.2,0.23,-1.0,625.57,413.33,-196.39
20740,0.0,-0.0,-0.0,0.2,0.22,-1.01,606.67,394.38,-198.11
20769,-0.06,0.12,-0.0,0.19,0.22,-1.02,610.59,419.12,-195.97
20780,-0.06,0.06,0.06,0.2,0.22,-1.02,606.35,414.78,-204.06
20809,-0.06,0.06,0.12,0.19,0.23,-1.02,604.85,409.6,-196.22
20820,-0.12,0.12,0.12,0.19,0.22,-1.01,606.33,410.9,-197.53
20849,-0.06,-0.0,0.06,0.2,0.23,-1.0,625.66,406.54,-193.97
20918,0.0,-0.0,0.06,0.2,0.23,-1.0,615.49,399.67,-199.39
20928,-0.12,0.06,-0.06,0.2,0.23,-1.01,615.66,396.67,-206.16
20957,-0.24,0.18,-0.0,0.19,0.22,-1.01,602.03,405.38,-200.33
20968,-0.12,0.12,-0.0,0.2,0.22,-1.0,614.0,401.02,-200.65
20997,-0.06,0.06,-0.12,0.2,0.22,-1.02,632.95,413.28,-193.83
21008,-0.18,0.12,-0.06,0.2,0.23,-1.01,610.85,406.73,-196.41
21037,-0.24,0.18,-0.06,0.2,0.22,-1.01,607.93,409.3,-202.94
21048,-0.18,0.12,0.12,0.2,0.22,-1.01,610.66,413.71,-193.5
21077,-0.06,0.06,0.12,0.2,0.22,-1.0,621.56,397.98,-204.87
21088,-0.06,0.12,-0.0,0.2,0.23,-1.02,627.33,400.86,-198.19
21117,-0.06,-0.0,0.06,0.2,0.23,-1.01,627.52,393.88,-201.1
21128,-0.06,0.06,-0.0,0.2,0.22,-1.01,622.44,413.73,-187.01
21157,-0.06,0.06,0.06,0.2,0.22,-1.02,604.69,409.94,-186.88
21168,-0.06,0.06,0.06,0.19,0.21,-1.01,625.84,402.22,-199.45
21197,-0.12,0.12,0.06,0.2,0.22,-1.02,606.44,405.39,-197.72
21208,-0.18,0.06,0.06,0.21,0.22,-1.01,607.62,413.92,-189.45
21237,-0.12,0.06,0.12,0.2,0.22,-1.01,605.16,399.72,-203.23
21248,-0.12,0.06,0.18,0.21,0.21,-1.03,622.64,413.29,-199.01
21277,0.0,-0.0,0.12,0.2,0.22,-1.01,640.53,415.46,-205.86
21288,0.0,-0.06,0.06,0.2,0.23,-0.99,633.45,396.42,-203.76
21317,-0.06,0.12,0.06,0.19,0.23,-1.01,613.86,407.91,-200.41
21328,0.0,-0.0,0.12,0.2,0.23,-1.01,615.16,413.53,-196.23
21357,-0.18,0.12,0.18,0.19,0.22,-1.01,613.81,398.81,-186.07
21368,0.0,-0.06,0.06,0.19,0.22,-1.02,616.8,414.49,-206.88
21397,0.0,-0.0,0.06,0.19,0.23,-0.99,621.29,407.76,-200.52
21408,-0.18,0.06,0.06,0.19,0.22,-1.01,618.25,413.23,-202.95
21437,0.0,-0.0,-0.0,0.2,0.21,-1.01,616.69,405.53,-188.54
21448,-0.18,0.06,0.12,0.19,0.22,-1.0,610.65,416.37,-196.07
21477,-0.12,0.18,-0.0,0.19,0.23,-1.01,627.44,400.62,-204.86
21549,-0.06,0.12,0.12,0.19,0.22,-1.01,615.35,406.55,-199.15
21560,-0.12,0.12,-0.12,0.19,0.22,-1.0,613.78,405.44,-192.5
21589,-0.12,0.12,-0.0,0.2,0.22,-1.01,609.46,405.24,-200.44
21600,-0.12,0.12,-0.0,0.19,0.22,-1.01,625.79,402.32,-196.78
21629,-0.12,0.06,0.12,0.2,0.22,-1.02,615.46,406.3,-205.82
21640,0.0,-0.0,-0.0,0.19,0.22,-1.01,613.92,405.15,-200.51
21669,-0.18,0.18,0.06,0.19,0.23,-1.01,614.79,426.16,-189.12
21680,-0.12,0.12,0.06,0.2,0.23,-1.0,609.47,398.65,-192.68
21709,-0.12,0.18,0.06,0.2,0.22,-1.02,607.83,406.89,-193.7
21720,-0.12,0.06,-0.0,0.19,0.22,-1.0,611.06,408.9,-212.32
21749,-0.18,0.06,0.06,0.19,0.22,-1.02,610.5,414.05,-184.16
21760,-0.18,0.06,0.12,0.2,0.22,-1.01,615.28,413.29,-202.9
21789,-0.06,0.18,0.12,0.19,0.22,-1.01,606.28,411.0,-194.86
21800,-0.24,0.06,0.18,0.19,0.22,-0.99,616.34,422.05,-187.96
21829,-0.06,0.06,0.12,0.2,0.22,-1.02,607.66,409.88,-186.93
21840,-0.12,-0.06,0.06,0.2,0.23,-1.01,611.24,390.12,-199.66
21869,-0.06,0.06,0.18,0.19,0.23,-1.01,610.82,413.37,-202.84
21880,-0.06,0.12,0.12,0.19,0.22,-1.01,602.07,401.35,-197.8
21909,0.0,-0.12,-0.0,0.2,0.22,-1.01,616.74,417.24,-206.78
21920,-0.18,0.06,0.06,0.2,0.22,-1.02,613.92,405.15,-200.51
21949,-0.12,0.06,-0.06,0.2,0.22,-1.01,615.55,396.91,-199.49
21960,-0.24,0.12,-0.06,0.2,0.22,-1.01,615.42,406.4,-203.15
21989,-0.18,0.06,0.12,0.2,0.22,-1.01,608.12,397.06,-199.37
22000,-0.12,0.12,-0.0,0.19,0.22,-1.0,607.89,413.33,-205.46
22029,-0.18,0.06,-0.0,0.2,0.23,-1.01,607.92,406.69,-199.03
22040,-0.06,-0.0,0.06,0.19,0.21,-1.01,616.68,410.8,-195.02
22069,-0.06,0.12,-0.0,0.19,0.23,-1.01,609.54,401.11,-200.58
22080,0.0,-0.0,-0.12,0.2,0.22,-1.01,610.71,413.61,-196.17
22109,-0.18,0.06,0.06,0.2,0.22,-1.02,613.71,410.85,-194.97
22182,-0.24,0.06,0.12,0.2,0.22,-1.01,622.74,406.5,-196.59
22192,-0.12,0.12,-0.0,0.2,0.22,-1.01,610.85,406.73,-196.41
22221,-0.06,0.12,-0.0,0.2,0.22,-1.0,607.77,409.64,-193.6
22232,-0.12,0.06,0.06,0.2,0.22,-1.0,622.72,409.16,-199.16
22261,-0.12,0.18,-0.06,0.2,0.23,-1.01,610.98,402.5,-199.22
22272,0.0,-0.0,-0.0,0.2,0.22,-1.01,607.62,413.92,-189.45
22301,-0.12,0.06,-0.0,0.2,0.22,-1.01,618.42,399.71,-196.77
22312,-0.12,0.06,-0.06,0.19,0.23,-1.0,607.86,409.44,-198.94
22341,-0.12,0.06,0.12,0.2,0.22,-1.01,627.3,407.5,-204.61
22352,-0.12,0.06,0.12,0.19,0.22,-1.0,625.99,392.68,-197.12
22381,-0.06,-0.0,-0.0,0.2,0.22,-1.01,618.53,399.46,-203.44
22392,-0.06,-0.06,0.06,0.19,0.23,-1.01,610.79,409.48,-196.31
22421,0.0,-0.0,0.06,0.2,0.22,-1.01,622.48,413.63,-189.67
22432,-0.12,0.06,-0.0,0.2,0.22,-1.02,615.28,413.29,-202.9
22461,-0.06,0.06,0.12,0.2,0.23,-1.01,616.84,405.19,-197.88
22472,-0.12,-0.0,0.06,0.2,0.22,-1.02,606.35,405.59,-192.39
22501,-0.06,0.06,0.06,0.19,0.22,-1.0,616.8,414.49,-206.88
22512,-0.12,0.18,-0.0,0.19,0.22,-1.02,609.27,408.28,-192.34
22541,-0.18,0.06,0.06,0.19,0.22,-1.01,609.33,414.73,-204.1
22552,-0.06,0.12,0.06,0.2,0.22,-1.01,615.16,413.53,-196.23
22581,-0.3,0.12,-0.06,0.2,0.23,-1.01,613.57,417.74,-194.73
22592,0.0,-0.06,-0.0,0.2,0.22,-1.01,616.64,414.83,-197.54
22621,-0.12,-0.0,-0.0,0.19,0.22,-1.02,614.06,398.27,-200.75
22632,-0.12,0.06,0.06,0.2,0.22,-1.0,604.66,416.58,-193.31
22661,-0.18,0.06,0.06,0.19,0.22,-1.0,624.03,414.78,-194.98
22672,-0.06,0.06,-0.0,0.2,0.23,-1.02,607.86,409.44,-198.94
22701,-0.12,0.06,0.06,0.2,0.22,-1.0,624.4,400.82,-200.81
22712,-0.12,0.12,0.06,0.2,0.22,-1.02,613.91,401.22,-195.31
22741,-0.12,0.12,-0.06,0.19,0.22,-1.0,622.42,416.38,-189.58
22818,-0.06,0.06,0.06,0.2,0.22,-1.01,618.08,416.22,-196.18
22829,0.06,-0.0,-0.0,0.2,0.22,-1.02,616.74,408.04,-195.12
22858,-0.06,0.06,-0.0,0.2,0.23,-0.99,624.04,421.32,-204.08
22869,-0.12,0.06,-0.06,0.2,0.22,-1.01,618.27,409.24,-199.09
22898,-0.12,0.06,-0.06,0.19,0.22,-1.01,622.63,409.35,-193.82
22909,-0.12,0.12,0.12,0.19,0.22,-1.0,610.71,413.61,-196.17
22938,-0.06,0.12,0.12,0.2,0.23,-1.01,610.99,399.85,-196.65
22949,-0.12,0.06,-0.0,0.2,0.22,-1.02,616.8,405.29,-195.21
22978,-0.12,0.06,0.06,0.2,0.22,-1.02,615.55,396.91,-199.49
22989,-0.12,0.06,0.18,0.19,0.22,-1.02,624.02,417.44,-197.56
23018,-0.06,0.06,0.12,0.21,0.22,-1.01,610.9,409.24,-202.98
23029,-0.06,0.06,-0.0,0.2,0.23,-1.01,610.8,406.83,-193.74
23058,-0.12,-0.0,0.06,0.2,0.22,-1.01,608.18,399.56,-205.95
23069,-0.06,0.06,-0.0,0.2,0.23,-1.0,613.76,410.76,-197.64
